session,trial,cont_trial,condition,SampleSound,test_shape,shape_combination,correct,RT
1,2,2,filler,Peaches.wav,"NA",Peaches_01.jpg_Bird_01.jpg,1,1498
1,3,3,filler,Shoe.wav,"NA",Shoe_01.jpg_Fridge_01.jpg,1,1871
1,4,4,test,keke.wav,edgy,ESlide46.jpg_RSlide19.jpg,0,831
1,5,5,filler,Cherries.wav,"NA",Cherries_02.jpg_Cooler_01.jpg,1,1625
1,6,6,filler,Key.wav,"NA",Key_01.jpg_Peaches_02.jpg,1,988
1,7,7,filler,Blanket.wav,"NA",Blanket_01.jpg_Trash_01.jpg,0,1341
1,8,8,filler,Teco.wav,"NA",Teco_02.jpg_Phone_02.jpg,1,1107
1,9,9,filler,Mushroom.wav,"NA",Mushroom_01.jpg_Elikya_01.jpg,1,1418
1,10,10,filler,Balloon.wav,"NA",Balloon_02.jpg_Celery_01.jpg,1,1137
1,11,11,filler,Yogurt.wav,"NA",Yogurt_02.jpg_Lighter_02.jpg,1,1748
1,12,12,test,pepe.wav,edgy,Eshape4.jpg_Rshape5.jpg,1,1183
1,13,13,filler,Car.wav,"NA",Car_02.jpg_Blackberries_01.jpg,1,1848
1,14,14,filler,Snake.wav,"NA",Snake_01.jpg_Rock_02.jpg,1,1292
1,15,15,filler,Oil.wav,"NA",Oil_02.jpg_Carrot_02.jpg,1,1514
1,16,16,filler,Green Bean.wav,"NA",Green Bean_01.jpg_Oil_02.jpg,1,966
1,17,17,filler,Milk.wav,"NA",Milk_02.jpg_Fish_02.jpg,1,2232
1,18,18,filler,Hat.wav,"NA",Hat_02.jpg_Bubbles_02.jpg,1,1204
1,19,19,filler,Pillow.wav,"NA",Pillow_01.jpg_Snake_02.jpg,1,1428
1,20,20,filler,Apple.wav,"NA",Apple_01.jpg_Ball_01.jpg,0,1553
1,21,21,filler,Shirt.wav,"NA",Shirt_02.jpg_Key_02.jpg,1,1478
1,22,22,test,lulu.wav,round,RSlide9.jpg_ESlide22.jpg,0,1065
1,23,23,filler,Toothbrush.wav,"NA",Toothbrush_02.jpg_Onion_02.jpg,1,1462
1,24,24,filler,Apple.wav,"NA",Apple_02.jpg_Turtle_01.jpg,0,1437
1,25,25,filler,Onion.wav,"NA",Onion_02.jpg_Nyota_02.jpg,0,1994
1,26,26,filler,Cooler.wav,"NA",Cooler_01.jpg_Hand_01.jpg,1,1006
1,27,27,filler,Stethoscope.wav,"NA",Stethoscope_02.jpg_Ice_01.jpg,1,1594
1,28,28,filler,Maisha.wav,"NA",Maisha_01.jpg_Apple_01.jpg,1,2146
1,29,29,filler,Fish.wav,"NA",Fish_01.jpg_Kanzi_02.jpg,1,1374
1,30,30,filler,Spoon.wav,"NA",Spoon_02.jpg_Onion_01.jpg,1,1144
1,31,31,filler,Raisin.wav,"NA",Raisin_02.jpg_Cherries_01.jpg,0,2135
1,32,32,filler,Tea.wav,"NA",Tea_02.jpg_Pear_01.jpg,1,1343
1,33,33,filler,Sweet Potato.wav,"NA",Sweet Potato_02.jpg_Egg_02.jpg,1,2460
1,34,34,test,gogo.wav,round,RSlide26.jpg_Eshape3.jpg,0,939
1,35,35,filler,Jelly.wav,"NA",Jelly_02.jpg_Vitamin_01.jpg,0,1601
1,36,36,filler,Fire.wav,"NA",Fire_01.jpg_Juice_02.jpg,1,1486
1,37,37,filler,Grapes.wav,"NA",Grapes_02.jpg_Cooler_02.jpg,1,799
1,38,38,filler,Turtle.wav,"NA",Turtle_01.jpg_Shoe_02.jpg,0,1041
1,39,39,filler,Pear.wav,"NA",Pear_02.jpg_Bug_02.jpg,1,1232
1,40,40,filler,Stethoscope.wav,"NA",Stethoscope_01.jpg_Tea_01.jpg,1,1383
1,41,41,filler,Camera.wav,"NA",Camera_01.jpg_Pineapple_01.jpg,1,1100
1,42,42,filler,Sugar Cane.wav,"NA",Sugar Cane_02.jpg_Tv_01.jpg,1,1086
1,43,43,filler,Egg.wav,"NA",Egg_01.jpg_Tv_02.jpg,1,919
1,44,44,test,dodo.wav,round,RSlide37.jpg_Eshape.jpg,1,1069
1,45,45,filler,Water.wav,"NA",Water_02.jpg_Raisin_01.jpg,1,1736
1,46,46,filler,Ear.wav,"NA",Ear_02.jpg_Backpack_02.jpg,1,1333
1,47,47,filler,Backpack.wav,"NA",Backpack_01.jpg_Maisha_02.jpg,1,1340
1,48,48,filler,Water.wav,"NA",Water_01.jpg_Coconut_02.jpg,0,1214
1,49,49,filler,Bird.wav,"NA",Bird_01.jpg_Swelling_02.jpg,1,1695
1,50,50,filler,Raisin.wav,"NA",Raisin_01.jpg_Pinecone_02.jpg,1,927
1,51,51,filler,Orange.wav,"NA",Orange_01.jpg_Tea_02.jpg,0,1729
1,52,52,filler,Peanut.wav,"NA",Peanut_01.jpg_Ear_02.jpg,1,1895
1,53,53,filler,Hose.wav,"NA",Hose_02.jpg_Balloon_02.jpg,1,1404
1,54,54,filler,Hat.wav,"NA",Hat_01.jpg_Nyota_01.jpg,1,1366
1,55,55,filler,Tomato.wav,"NA",Tomato_01.jpg_Baby_02.jpg,1,1462
1,56,56,filler,Blueberry.wav,"NA",Blueberry_02.jpg_Fridge_02.jpg,1,1325
1,57,57,filler,Vitamin.wav,"NA",Vitamin_02.jpg_Knife_02.jpg,0,2130
1,58,58,test,sisi.wav,edgy,ESlide8.jpg_RSlide21.jpg,1,890
1,59,59,filler,Lettuce.wav,"NA",Lettuce_01.jpg_Pineapple_02.jpg,1,1592
1,60,60,filler,Bug.wav,"NA",Bug_02.jpg_Egg_01.jpg,1,1760
1,61,61,filler,Mushroom.wav,"NA",Mushroom_02.jpg_Tummy_01.jpg,1,1068
1,62,62,filler,Pinecone.wav,"NA",Pinecone_02.jpg_Straw_02.jpg,1,1473
1,63,63,filler,Turtle.wav,"NA",Turtle_02.jpg_Peanut_02.jpg,1,1374
1,64,64,filler,Balloon.wav,"NA",Balloon_01.jpg_Pillow_02.jpg,1,1297
1,65,65,filler,Bread.wav,"NA",Bread_01.jpg_Hose_01.jpg,1,1311
1,66,66,filler,Shirt.wav,"NA",Shirt_01.jpg_Squirrel_02.jpg,0,1580
1,67,67,test,sese.wav,edgy,ESlide34.jpg_RSlide2.jpg,1,1123
1,68,68,filler,Foot.wav,"NA",Foot_01.jpg_Fire_02.jpg,0,1193
1,69,69,filler,Orangutan.wav,"NA",Orangutan_01.jpg_Coconut_01.jpg,1,1187
1,70,70,filler,Bunny.wav,"NA",Bunny_02.jpg_Camera_01.jpg,1,1286
1,71,71,filler,Blackberries.wav,"NA",Blackberries_01.jpg_Bubbles_01.jpg,0,1223
1,72,72,test,nono.wav,round,RSlide27.jpg_ESlide18.jpg,0,1057
1,73,73,filler,Bug.wav,"NA",Bug_01.jpg_Squirrel_01.jpg,0,1189
1,74,74,filler,Baby.wav,"NA",Baby_02.jpg_Groom_02.jpg,0,1467
1,75,75,filler,Car.wav,"NA",Car_01.jpg_Raisin_02.jpg,1,1623
1,76,76,filler,Strawberries.wav,"NA",Strawberries_01.jpg_Ball_02.jpg,1,1795
1,77,77,filler,Key.wav,"NA",Key_02.jpg_Watermelon_01.jpg,1,1453
1,78,78,filler,Stick.wav,"NA",Stick_01.jpg_Green Bean_01.jpg,1,1424
1,79,79,filler,Trash.wav,"NA",Trash_01.jpg_Cheese_02.jpg,1,2609
1,80,80,filler,Peas.wav,"NA",Peas_02.jpg_Hand_02.jpg,1,1162
1,81,81,filler,Foot.wav,"NA",Foot_02.jpg_Ice_02.jpg,1,3745
1,82,82,filler,Nyota.wav,"NA",Nyota_01.jpg_Shirt_02.jpg,1,1650
1,83,83,test,dudu.wav,round,RSlide33.jpg_ESlide38.jpg,1,975
1,84,84,filler,Maisha.wav,"NA",Maisha_02.jpg_Sugar Cane_01.jpg,1,1391
1,85,85,filler,Ear.wav,"NA",Ear_01.jpg_Fish_01.jpg,1,1096
1,86,86,filler,Cherries.wav,"NA",Cherries_01.jpg_Turtle_02.jpg,1,1019
1,87,87,filler,Pinecone.wav,"NA",Pinecone_01.jpg_Hat_01.jpg,1,956
1,88,88,filler,Ball.wav,"NA",Ball_02.jpg_Gorilla_02.jpg,0,3599
1,89,89,filler,Milk.wav,"NA",Milk_01.jpg_Toothbrush_02.jpg,0,1536
1,90,90,filler,Pineapple.wav,"NA",Pineapple_01.jpg_Lettuce_01.jpg,1,1223
1,91,91,filler,Phone.wav,"NA",Phone_01.jpg_Green Bean_02.jpg,1,1394
1,92,92,filler,Peas.wav,"NA",Peas_01.jpg_Lemon_02.jpg,1,1610
1,93,93,filler,Tv.wav,"NA",Tv_02.jpg_Straw_01.jpg,1,1046
1,94,94,filler,Cereal.wav,"NA",Cereal_01.jpg_Wipies_02.jpg,1,1553
1,95,95,filler,Bubbles.wav,"NA",Bubbles_01.jpg_Carrot_01.jpg,1,2337
1,96,96,filler,Orangutan.wav,"NA",Orangutan_02.jpg_Knife_01.jpg,1,1337
1,97,97,filler,Wipies.wav,"NA",Wipies_02.jpg_Dog_01.jpg,1,1194
1,98,98,test,pipi.wav,edgy,ESlide6.jpg_RSlide17.jpg,0,1380
1,99,99,filler,Groom.wav,"NA",Groom_01.jpg_Banana_01.jpg,1,957
1,100,100,filler,Apricot.wav,"NA",Apricot_02.jpg_Stick_01.jpg,1,1214
2,2,102,filler,Swelling.wav,"NA",Swelling_02.jpg_Oil_01.jpg,1,2421
2,3,103,filler,Rock.wav,"NA",Rock_01.jpg_Spoon_01.jpg,0,1762
2,4,104,filler,Gorilla.wav,"NA",Gorilla_02.jpg_Spoon_02.jpg,0,1216
2,5,105,filler,Lighter.wav,"NA",Lighter_01.jpg_Kanzi_01.jpg,1,1110
2,6,106,test,fifi.wav,edgy,ESlide38.jpg_RSlide17.jpg,0,3664
2,7,107,filler,Gorilla.wav,"NA",Gorilla_01.jpg_Blanket_01.jpg,1,1490
2,8,108,filler,Fridge.wav,"NA",Fridge_02.jpg_Foot_02.jpg,1,3942
2,9,109,filler,Lighter.wav,"NA",Lighter_02.jpg_Lettuce_02.jpg,0,1985
2,10,110,filler,Cheese.wav,"NA",Cheese_01.jpg_Orangutan_02.jpg,1,1513
2,11,111,filler,Ice.wav,"NA",Ice_02.jpg_Water_02.jpg,1,998
2,12,112,filler,Blueberry.wav,"NA",Blueberry_01.jpg_Teco_02.jpg,1,1497
2,13,113,filler,Watermelon.wav,"NA",Watermelon_02.jpg_Peaches_01.jpg,1,3939
2,14,114,filler,Baby.wav,"NA",Baby_01.jpg_Fire_01.jpg,0,1329
2,15,115,filler,Sweet Potato.wav,"NA",Sweet Potato_01.jpg_Strawberries_02.jpg,1,1527
2,16,116,filler,Straw.wav,"NA",Straw_02.jpg_Matata_01.jpg,1,1802
2,17,117,filler,Camera.wav,"NA",Camera_02.jpg_Bread_02.jpg,1,1365
2,18,118,filler,Swelling.wav,"NA",Swelling_01.jpg_Jelly_02.jpg,1,1027
2,19,119,test,lolo.wav,round,RSlide19.jpg_ESlide22.jpg,1,916
2,20,120,filler,Snake.wav,"NA",Snake_02.jpg_Backpack_01.jpg,1,1508
2,21,121,filler,Tea.wav,"NA",Tea_01.jpg_Jelly_01.jpg,1,1737
2,22,122,test,zizi.wav,edgy,ESlide6.jpg_RSlide33.jpg,1,1277
2,23,123,filler,Strawberries.wav,"NA",Strawberries_02.jpg_Matata_02.jpg,1,829
2,24,124,filler,Dog.wav,"NA",Dog_01.jpg_Stethoscope_01.jpg,1,1329
2,25,125,filler,Egg.wav,"NA",Egg_02.jpg_Key_01.jpg,1,1259
2,26,126,filler,Shoe.wav,"NA",Shoe_02.jpg_Celery_02.jpg,1,1323
2,27,127,filler,Oil.wav,"NA",Oil_01.jpg_Apricot_01.jpg,1,1217
2,28,128,filler,Fridge.wav,"NA",Fridge_01.jpg_Car_02.jpg,1,1443
2,29,129,filler,Knife.wav,"NA",Knife_01.jpg_Popsicle_01.jpg,1,1223
2,30,130,filler,Phone.wav,"NA",Phone_02.jpg_Peas_02.jpg,1,1187
2,31,131,filler,Elikya.wav,"NA",Elikya_01.jpg_Blackberries_02.jpg,1,1238
2,32,132,filler,Juice.wav,"NA",Juice_02.jpg_Bread_01.jpg,1,1088
2,33,133,filler,Noodles.wav,"NA",Noodles_02.jpg_Grapes_02.jpg,1,1398
2,34,134,test,zeze.wav,edgy,Eshape.jpg_RSlide26.jpg,0,1126
2,35,135,filler,Sugar Cane.wav,"NA",Sugar Cane_01.jpg_Bowl_02.jpg,1,1231
2,36,136,filler,Squirrel.wav,"NA",Squirrel_02.jpg_Melon_02.jpg,1,1182
2,37,137,filler,Tummy.wav,"NA",Tummy_01.jpg_Bowl_01.jpg,1,1536
2,38,138,filler,Melon.wav,"NA",Melon_01.jpg_Trash_02.jpg,1,3024
2,39,139,filler,Nyota.wav,"NA",Nyota_02.jpg_Apple_02.jpg,1,1310
2,40,140,filler,Mouth.wav,"NA",Mouth_02.jpg_Milk_02.jpg,0,1697
2,41,141,filler,Stick.wav,"NA",Stick_02.jpg_Peanut_01.jpg,1,931
2,42,142,filler,Orange.wav,"NA",Orange_02.jpg_Blueberry_01.jpg,1,1296
2,43,143,filler,Spoon.wav,"NA",Spoon_01.jpg_Mushroom_01.jpg,1,1884
2,44,144,filler,Yogurt.wav,"NA",Yogurt_01.jpg_Cereal_01.jpg,1,1860
2,45,145,filler,Pineapple.wav,"NA",Pineapple_02.jpg_Strawberries_01.jpg,1,1189
2,46,146,filler,Fire.wav,"NA",Fire_02.jpg_Orange_02.jpg,1,1096
2,47,147,filler,Wipies.wav,"NA",Wipies_01.jpg_Peas_01.jpg,1,1655
2,48,148,test,gugu.wav,round,RSlide37.jpg_ESlide8.jpg,1,1218
2,49,149,filler,Ice.wav,"NA",Ice_01.jpg_Potato_02.jpg,1,1755
2,50,150,filler,Bunny.wav,"NA",Bunny_01.jpg_Juice_01.jpg,1,1233
2,51,151,filler,Vitamin.wav,"NA",Vitamin_01.jpg_Brush_02.jpg,1,2026
2,52,152,filler,Lettuce.wav,"NA",Lettuce_02.jpg_Rock_01.jpg,0,1939
2,53,153,filler,Dog.wav,"NA",Dog_02.jpg_Melon_01.jpg,1,1442
2,54,154,filler,Toothbrush.wav,"NA",Toothbrush_01.jpg_Mouth_01.jpg,1,3116
2,55,155,filler,Teco.wav,"NA",Teco_01.jpg_Noodles_01.jpg,1,1315
2,56,156,filler,Banana.wav,"NA",Banana_01.jpg_Orange_01.jpg,1,934
2,57,157,test,fefe.wav,edgy,ESlide18.jpg_RSlide21.jpg,0,1131
2,58,158,filler,Coconut.wav,"NA",Coconut_01.jpg_Stick_02.jpg,1,1034
2,59,159,filler,Mouth.wav,"NA",Mouth_01.jpg_Bunny_02.jpg,0,1314
2,60,160,filler,Lemon.wav,"NA",Lemon_01.jpg_Camera_02.jpg,0,1556
2,61,161,filler,Kanzi.wav,"NA",Kanzi_01.jpg_Pinecone_01.jpg,1,1101
2,62,162,filler,Onion.wav,"NA",Onion_01.jpg_Dog_02.jpg,0,2054
2,63,163,filler,Noodles.wav,"NA",Noodles_01.jpg_Elikya_02.jpg,1,1099
2,64,164,filler,Bread.wav,"NA",Bread_02.jpg_Groom_01.jpg,0,1077
2,65,165,filler,Grapes.wav,"NA",Grapes_01.jpg_Shirt_01.jpg,1,1204
2,66,166,filler,Cereal.wav,"NA",Cereal_02.jpg_Lighter_01.jpg,1,1060
2,67,167,filler,Bird.wav,"NA",Bird_02.jpg_String_01.jpg,1,1341
2,68,168,filler,Celery.wav,"NA",Celery_02.jpg_Hose_02.jpg,1,1609
2,69,169,test,mumu.wav,round,RSlide2.jpg_ESlide34.jpg,1,1247
2,70,170,filler,Popsicle.wav,"NA",Popsicle_02.jpg_Toothbrush_01.jpg,1,1348
2,71,171,filler,Bowl.wav,"NA",Bowl_02.jpg_Watermelon_02.jpg,1,1349
2,72,172,filler,Peanut.wav,"NA",Peanut_02.jpg_Phone_01.jpg,1,1081
2,73,173,filler,Bowl.wav,"NA",Bowl_01.jpg_Sweet Potato_02.jpg,1,1416
2,74,174,filler,Hose.wav,"NA",Hose_01.jpg_String_02.jpg,1,1464
2,75,175,test,kiki.wav,edgy,Eshape4.jpg_RSlide27.jpg,0,1204
2,76,176,filler,Jelly.wav,"NA",Jelly_01.jpg_Bird_02.jpg,0,1185
2,77,177,filler,Elikya.wav,"NA",Elikya_02.jpg_Mushroom_02.jpg,1,1432
2,78,178,filler,Trash.wav,"NA",Trash_02.jpg_Mouth_02.jpg,0,1323
2,79,179,filler,Carrot.wav,"NA",Carrot_02.jpg_Hat_02.jpg,0,1567
2,80,180,filler,Cheese.wav,"NA",Cheese_02.jpg_Orangutan_01.jpg,0,1186
2,81,181,filler,Potato.wav,"NA",Potato_02.jpg_Tummy_02.jpg,1,1302
2,82,182,filler,Tomato.wav,"NA",Tomato_02.jpg_Pear_02.jpg,0,1531
2,83,183,filler,Squirrel.wav,"NA",Squirrel_01.jpg_Tomato_02.jpg,1,1513
2,84,184,filler,Popsicle.wav,"NA",Popsicle_01.jpg_Bug_01.jpg,1,1137
2,85,185,filler,Groom.wav,"NA",Groom_02.jpg_Teco_01.jpg,1,1425
2,86,186,filler,Green Bean.wav,"NA",Green Bean_02.jpg_Shoe_01.jpg,1,1327
2,87,187,test,nunu.wav,round,RSlide9.jpg_ESlide46.jpg,0,1186
2,88,188,filler,Coconut.wav,"NA",Coconut_02.jpg_Foot_01.jpg,1,1191
2,89,189,filler,Watermelon.wav,"NA",Watermelon_01.jpg_Grapes_01.jpg,1,2112
2,90,190,filler,Celery.wav,"NA",Celery_01.jpg_Banana_02.jpg,1,1156
2,91,191,filler,Pear.wav,"NA",Pear_01.jpg_Cereal_02.jpg,1,2350
2,92,192,filler,Hand.wav,"NA",Hand_02.jpg_Apricot_02.jpg,1,1841
2,93,193,filler,Fish.wav,"NA",Fish_02.jpg_Noodles_02.jpg,1,1883
2,94,194,filler,Hand.wav,"NA",Hand_01.jpg_Bunny_01.jpg,0,1297
2,95,195,filler,Potato.wav,"NA",Potato_01.jpg_Vitamin_02.jpg,1,1511
2,96,196,filler,Matata.wav,"NA",Matata_01.jpg_Cherries_02.jpg,1,1237
2,97,197,test,momo.wav,round,Rshape5.jpg_Eshape3.jpg,1,917
2,98,198,filler,Cooler.wav,"NA",Cooler_02.jpg_Stethoscope_02.jpg,1,1358
2,99,199,filler,Knife.wav,"NA",Knife_02.jpg_Pillow_01.jpg,1,1370
2,100,200,filler,String.wav,"NA",String_01.jpg_Snake_01.jpg,1,980
3,2,202,filler,Melon.wav,"NA",Melon_02.jpg_Lemon_01.jpg,0,1512
3,3,203,test,nunu.wav,round,RSlide9.jpg_Eshape4.jpg,0,1203
3,4,204,filler,Peaches.wav,"NA",Peaches_02.jpg_Yogurt_02.jpg,1,1348
3,5,205,filler,String.wav,"NA",String_02.jpg_Tomato_01.jpg,1,1304
3,6,206,filler,Juice.wav,"NA",Juice_01.jpg_Maisha_01.jpg,1,1028
3,7,207,filler,Banana.wav,"NA",Banana_02.jpg_Gorilla_01.jpg,1,1235
3,8,208,filler,Backpack.wav,"NA",Backpack_02.jpg_Wipies_01.jpg,1,2368
3,9,209,filler,Brush.wav,"NA",Brush_02.jpg_Baby_01.jpg,0,1115
3,10,210,filler,Blackberries.wav,"NA",Blackberries_02.jpg_Cheese_01.jpg,0,1411
3,11,211,filler,Matata.wav,"NA",Matata_02.jpg_Balloon_01.jpg,1,1045
3,12,212,filler,Straw.wav,"NA",Straw_01.jpg_Sweet Potato_01.jpg,1,1723
3,13,213,filler,Carrot.wav,"NA",Carrot_01.jpg_Blanket_02.jpg,0,1096
3,14,214,filler,Bubbles.wav,"NA",Bubbles_02.jpg_Brush_01.jpg,1,1272
3,15,215,filler,Brush.wav,"NA",Brush_01.jpg_Blueberry_02.jpg,1,1672
3,16,216,filler,Blanket.wav,"NA",Blanket_02.jpg_Ear_01.jpg,1,2220
3,17,217,filler,Kanzi.wav,"NA",Kanzi_02.jpg_Potato_01.jpg,1,1220
3,18,218,filler,Pillow.wav,"NA",Pillow_02.jpg_Water_01.jpg,1,1751
3,19,219,test,zeze.wav,edgy,Eshape.jpg_RSlide33.jpg,1,1155
3,20,220,filler,Lemon.wav,"NA",Lemon_02.jpg_Milk_01.jpg,1,3523
3,21,221,filler,Tv.wav,"NA",Tv_01.jpg_Yogurt_01.jpg,1,1804
3,22,222,filler,Rock.wav,"NA",Rock_02.jpg_Popsicle_02.jpg,1,1632
3,23,223,filler,Apricot.wav,"NA",Apricot_01.jpg_Sugar Cane_02.jpg,0,1155
3,24,224,filler,Egg.wav,"NA",Egg_01.jpg_Cooler_01.jpg,1,1563
3,25,225,filler,Phone.wav,"NA",Phone_02.jpg_Peas_02.jpg,1,1939
3,26,226,test,sese.wav,edgy,ESlide18.jpg_Rshape5.jpg,1,1028
3,27,227,filler,Stethoscope.wav,"NA",Stethoscope_01.jpg_Mushroom_02.jpg,1,1496
3,28,228,filler,Tea.wav,"NA",Tea_02.jpg_Pinecone_02.jpg,1,1079
3,29,229,filler,Kanzi.wav,"NA",Kanzi_02.jpg_Car_01.jpg,1,963
3,30,230,filler,Watermelon.wav,"NA",Watermelon_02.jpg_Stethoscope_01.jpg,0,852
3,31,231,filler,Shirt.wav,"NA",Shirt_02.jpg_Maisha_01.jpg,0,2499
3,32,232,filler,Backpack.wav,"NA",Backpack_01.jpg_Balloon_01.jpg,1,1807
3,33,233,test,dodo.wav,round,RSlide17.jpg_ESlide22.jpg,1,1184
3,34,234,filler,Tea.wav,"NA",Tea_01.jpg_Grapes_02.jpg,1,1563
3,35,235,filler,Coconut.wav,"NA",Coconut_02.jpg_Toothbrush_02.jpg,1,1551
3,36,236,filler,Mushroom.wav,"NA",Mushroom_01.jpg_Kanzi_01.jpg,1,1384
3,37,237,filler,Tomato.wav,"NA",Tomato_01.jpg_Blanket_02.jpg,1,1811
3,38,238,filler,Lighter.wav,"NA",Lighter_02.jpg_Fish_02.jpg,1,2155
3,39,239,filler,Camera.wav,"NA",Camera_02.jpg_Ice_02.jpg,0,6392
3,40,240,filler,Peaches.wav,"NA",Peaches_02.jpg_Tomato_01.jpg,1,1284
3,41,241,filler,Stick.wav,"NA",Stick_01.jpg_Straw_01.jpg,1,1087
3,42,242,filler,Bird.wav,"NA",Bird_02.jpg_Cheese_02.jpg,1,1668
3,43,243,test,fefe.wav,edgy,ESlide8.jpg_RSlide2.jpg,1,1160
3,44,244,filler,Tv.wav,"NA",Tv_01.jpg_Sweet Potato_02.jpg,1,2428
3,45,245,filler,Cooler.wav,"NA",Cooler_01.jpg_Pillow_01.jpg,1,1227
3,46,246,filler,Bug.wav,"NA",Bug_01.jpg_Coconut_01.jpg,0,1884
3,47,247,filler,Bunny.wav,"NA",Bunny_01.jpg_Orange_02.jpg,1,1371
3,48,248,filler,Peaches.wav,"NA",Peaches_01.jpg_Backpack_01.jpg,1,1076
3,49,249,filler,Fridge.wav,"NA",Fridge_01.jpg_Strawberries_02.jpg,0,1544
3,50,250,filler,Oil.wav,"NA",Oil_02.jpg_Wipies_02.jpg,1,1516
3,51,251,filler,Sweet Potato.wav,"NA",Sweet Potato_01.jpg_Oil_02.jpg,1,1383
3,52,252,filler,Balloon.wav,"NA",Balloon_02.jpg_Shirt_02.jpg,1,1228
3,53,253,filler,Hose.wav,"NA",Hose_02.jpg_Knife_01.jpg,1,1496
3,54,254,filler,Tummy.wav,"NA",Tummy_02.jpg_Sugar Cane_01.jpg,1,1483
3,55,255,filler,Blueberry.wav,"NA",Blueberry_02.jpg_Pinecone_01.jpg,1,1148
3,56,256,filler,Apple.wav,"NA",Apple_01.jpg_Vitamin_01.jpg,0,1859
3,57,257,filler,Raisin.wav,"NA",Raisin_01.jpg_Noodles_02.jpg,1,1751
3,58,258,filler,Car.wav,"NA",Car_02.jpg_Baby_01.jpg,0,1967
3,59,259,test,dudu.wav,round,RSlide21.jpg_Eshape3.jpg,0,1247
3,60,260,filler,Pinecone.wav,"NA",Pinecone_01.jpg_Matata_02.jpg,1,987
3,61,261,filler,Cooler.wav,"NA",Cooler_02.jpg_Snake_01.jpg,1,1879
3,62,262,filler,Rock.wav,"NA",Rock_01.jpg_Pear_01.jpg,1,1583
3,63,263,test,zizi.wav,edgy,ESlide34.jpg_RSlide26.jpg,0,1035
3,64,264,filler,Swelling.wav,"NA",Swelling_01.jpg_Ball_01.jpg,0,1720
3,65,265,filler,Elikya.wav,"NA",Elikya_01.jpg_Camera_01.jpg,1,2131
3,66,266,filler,Elikya.wav,"NA",Elikya_02.jpg_Shoe_02.jpg,1,1111
3,67,267,filler,Knife.wav,"NA",Knife_02.jpg_Foot_01.jpg,1,2008
3,68,268,filler,Carrot.wav,"NA",Carrot_01.jpg_Gorilla_01.jpg,0,1819
3,69,269,filler,Juice.wav,"NA",Juice_01.jpg_Raisin_01.jpg,1,1523
3,70,270,filler,Blackberries.wav,"NA",Blackberries_02.jpg_Wipies_01.jpg,1,1451
3,71,271,filler,Phone.wav,"NA",Phone_01.jpg_Squirrel_01.jpg,1,1443
3,72,272,filler,Onion.wav,"NA",Onion_01.jpg_Milk_01.jpg,0,2200
3,73,273,filler,Nyota.wav,"NA",Nyota_02.jpg_Trash_01.jpg,0,1443
3,74,274,filler,Straw.wav,"NA",Straw_02.jpg_Vitamin_02.jpg,1,1087
3,75,275,filler,Gorilla.wav,"NA",Gorilla_02.jpg_Stick_02.jpg,0,1211
3,76,276,filler,Tv.wav,"NA",Tv_02.jpg_Groom_02.jpg,1,1579
3,77,277,test,gugu.wav,round,RSlide27.jpg_ESlide6.jpg,0,1227
3,78,278,filler,Mouth.wav,"NA",Mouth_02.jpg_Pillow_02.jpg,1,1259
3,79,279,filler,Trash.wav,"NA",Trash_01.jpg_Tummy_01.jpg,1,1378
3,80,280,filler,Swelling.wav,"NA",Swelling_02.jpg_Lettuce_02.jpg,1,1912
3,81,281,filler,Vitamin.wav,"NA",Vitamin_02.jpg_Juice_02.jpg,0,2039
3,82,282,filler,Hat.wav,"NA",Hat_01.jpg_Coconut_02.jpg,1,1278
3,83,283,filler,Banana.wav,"NA",Banana_01.jpg_Jelly_01.jpg,1,1194
3,84,284,filler,Pinecone.wav,"NA",Pinecone_02.jpg_Cereal_01.jpg,1,1324
3,85,285,filler,Peanut.wav,"NA",Peanut_01.jpg_Tomato_02.jpg,1,1160
3,86,286,filler,Blackberries.wav,"NA",Blackberries_01.jpg_Elikya_01.jpg,1,1555
3,87,287,filler,Raisin.wav,"NA",Raisin_02.jpg_Peaches_01.jpg,1,1122
3,88,288,filler,Straw.wav,"NA",Straw_01.jpg_Tea_01.jpg,1,2335
3,89,289,test,nono.wav,round,RSlide19.jpg_ESlide38.jpg,1,1544
3,90,290,filler,Pear.wav,"NA",Pear_02.jpg_Sugar Cane_02.jpg,1,1155
3,91,291,filler,Bunny.wav,"NA",Bunny_02.jpg_Nyota_02.jpg,1,1775
3,92,292,filler,Fish.wav,"NA",Fish_02.jpg_Shirt_01.jpg,0,1639
3,93,293,filler,Green Bean.wav,"NA",Green Bean_02.jpg_Dog_02.jpg,1,1570
3,94,294,filler,Banana.wav,"NA",Banana_02.jpg_Apricot_02.jpg,1,1259
3,95,295,test,sisi.wav,edgy,ESlide46.jpg_RSlide37.jpg,0,1051
3,96,296,filler,Matata.wav,"NA",Matata_02.jpg_String_02.jpg,1,1078
3,97,297,filler,Dog.wav,"NA",Dog_02.jpg_Baby_02.jpg,0,1731
3,98,298,filler,Bug.wav,"NA",Bug_02.jpg_Blackberries_02.jpg,0,1282
3,99,299,filler,Key.wav,"NA",Key_02.jpg_Swelling_01.jpg,1,1851
3,100,300,filler,Turtle.wav,"NA",Turtle_01.jpg_Lemon_02.jpg,1,1343
3,101,301,filler,Apricot.wav,"NA",Apricot_01.jpg_Hand_02.jpg,1,1254
4,2,302,filler,Green Bean.wav,"NA",Green Bean_01.jpg_Mouth_02.jpg,1,1038
4,3,303,filler,Grapes.wav,"NA",Grapes_01.jpg_String_01.jpg,1,1271
4,4,304,filler,Blanket.wav,"NA",Blanket_01.jpg_Water_01.jpg,0,1350
4,5,305,filler,Toothbrush.wav,"NA",Toothbrush_02.jpg_Banana_01.jpg,1,1663
4,6,306,test,pepe.wav,edgy,ESlide8.jpg_RSlide19.jpg,1,1300
4,7,307,filler,Yogurt.wav,"NA",Yogurt_02.jpg_Jelly_02.jpg,1,1720
4,8,308,filler,Matata.wav,"NA",Matata_01.jpg_Popsicle_01.jpg,1,1195
4,9,309,filler,Potato.wav,"NA",Potato_02.jpg_Ice_01.jpg,1,4448
4,10,310,filler,Strawberries.wav,"NA",Strawberries_02.jpg_Celery_01.jpg,1,1596
4,11,311,filler,Sugar Cane.wav,"NA",Sugar Cane_01.jpg_Apple_02.jpg,1,1591
4,12,312,filler,Popsicle.wav,"NA",Popsicle_02.jpg_Shoe_01.jpg,1,1400
4,13,313,filler,Lemon.wav,"NA",Lemon_01.jpg_Kanzi_02.jpg,1,1637
4,14,314,filler,Egg.wav,"NA",Egg_02.jpg_Bird_02.jpg,1,1297
4,15,315,filler,Baby.wav,"NA",Baby_01.jpg_Pineapple_02.jpg,1,1517
4,16,316,filler,Orange.wav,"NA",Orange_02.jpg_Egg_02.jpg,1,2201
4,17,317,filler,Lemon.wav,"NA",Lemon_02.jpg_Stick_01.jpg,0,1460
4,18,318,filler,Balloon.wav,"NA",Balloon_01.jpg_Cooler_02.jpg,1,1058
4,19,319,test,gogo.wav,round,Rshape5.jpg_ESlide38.jpg,1,1002
4,20,320,filler,Foot.wav,"NA",Foot_01.jpg_Apricot_01.jpg,1,1982
4,21,321,filler,Orange.wav,"NA",Orange_01.jpg_Melon_02.jpg,1,2049
4,22,322,filler,Maisha.wav,"NA",Maisha_01.jpg_Potato_02.jpg,1,1303
4,23,323,filler,Celery.wav,"NA",Celery_02.jpg_Phone_02.jpg,1,1211
4,24,324,filler,Bread.wav,"NA",Bread_02.jpg_Rock_01.jpg,1,1882
4,25,325,filler,Baby.wav,"NA",Baby_02.jpg_Onion_01.jpg,1,1225
4,26,326,filler,Snake.wav,"NA",Snake_02.jpg_Juice_01.jpg,1,1090
4,27,327,filler,Rock.wav,"NA",Rock_02.jpg_Cherries_01.jpg,1,1191
4,28,328,filler,Knife.wav,"NA",Knife_01.jpg_Teco_01.jpg,1,1232
4,29,329,filler,Bubbles.wav,"NA",Bubbles_02.jpg_Gorilla_02.jpg,1,1510
4,30,330,test,momo.wav,round,RSlide17.jpg_Eshape3.jpg,1,976
4,31,331,filler,Apricot.wav,"NA",Apricot_02.jpg_Turtle_02.jpg,1,1359
4,32,332,filler,Potato.wav,"NA",Potato_01.jpg_Balloon_02.jpg,1,1234
4,33,333,filler,Turtle.wav,"NA",Turtle_02.jpg_Orange_01.jpg,0,1243
4,34,334,filler,Pear.wav,"NA",Pear_01.jpg_Fridge_02.jpg,1,1506
4,35,335,filler,Popsicle.wav,"NA",Popsicle_01.jpg_Dog_01.jpg,1,1254
4,36,336,filler,Orangutan.wav,"NA",Orangutan_01.jpg_Camera_02.jpg,0,1938
4,37,337,filler,Snake.wav,"NA",Snake_01.jpg_Ear_01.jpg,1,1279
4,38,338,test,pipi.wav,edgy,ESlide34.jpg_RSlide27.jpg,0,1200
4,39,339,filler,Key.wav,"NA",Key_01.jpg_Mushroom_01.jpg,1,1155
4,40,340,filler,Pineapple.wav,"NA",Pineapple_01.jpg_Key_01.jpg,1,1231
4,41,341,filler,Spoon.wav,"NA",Spoon_01.jpg_Yogurt_02.jpg,1,1919
4,42,342,filler,Lettuce.wav,"NA",Lettuce_01.jpg_Carrot_01.jpg,1,1820
4,43,343,filler,Toothbrush.wav,"NA",Toothbrush_01.jpg_Celery_02.jpg,1,1700
4,44,344,filler,Hand.wav,"NA",Hand_02.jpg_Sweet Potato_01.jpg,1,1574
4,45,345,filler,Cherries.wav,"NA",Cherries_01.jpg_Lettuce_01.jpg,1,1272
4,46,346,filler,Noodles.wav,"NA",Noodles_01.jpg_Ear_02.jpg,1,3519
4,47,347,filler,Teco.wav,"NA",Teco_01.jpg_Car_02.jpg,1,1136
4,48,348,test,kiki.wav,edgy,ESlide18.jpg_RSlide2.jpg,1,1060
4,49,349,filler,Tomato.wav,"NA",Tomato_02.jpg_Orangutan_02.jpg,0,1336
4,50,350,filler,Hat.wav,"NA",Hat_02.jpg_Foot_02.jpg,0,1644
4,51,351,filler,Kanzi.wav,"NA",Kanzi_01.jpg_Spoon_02.jpg,1,1639
4,52,352,filler,Onion.wav,"NA",Onion_02.jpg_Toothbrush_01.jpg,0,1667
4,53,353,test,lolo.wav,round,RSlide37.jpg_ESlide6.jpg,1,780
4,54,354,filler,Spoon.wav,"NA",Spoon_02.jpg_Peanut_01.jpg,1,1766
4,55,355,filler,Peas.wav,"NA",Peas_02.jpg_Hat_01.jpg,0,1265
4,56,356,filler,Bowl.wav,"NA",Bowl_01.jpg_Green Bean_01.jpg,1,1818
4,57,357,filler,Gorilla.wav,"NA",Gorilla_01.jpg_Tea_02.jpg,1,1457
4,58,358,filler,Stick.wav,"NA",Stick_02.jpg_Bunny_02.jpg,0,1029
4,59,359,filler,Bread.wav,"NA",Bread_01.jpg_Swelling_02.jpg,1,1321
4,60,360,filler,Wipies.wav,"NA",Wipies_02.jpg_Bowl_01.jpg,1,2189
4,61,361,filler,Cereal.wav,"NA",Cereal_01.jpg_Straw_02.jpg,1,1194
4,62,362,filler,Water.wav,"NA",Water_01.jpg_Hose_01.jpg,0,1455
4,63,363,test,fifi.wav,edgy,Eshape.jpg_RSlide33.jpg,0,1124
4,64,364,filler,Backpack.wav,"NA",Backpack_02.jpg_Tv_01.jpg,1,1484
4,65,365,filler,Milk.wav,"NA",Milk_02.jpg_Bread_01.jpg,1,1077
4,66,366,filler,Ear.wav,"NA",Ear_01.jpg_Popsicle_02.jpg,1,1246
4,67,367,filler,Yogurt.wav,"NA",Yogurt_01.jpg_Fridge_01.jpg,1,1061
4,68,368,filler,String.wav,"NA",String_01.jpg_Lighter_01.jpg,1,1985
4,69,369,filler,Fire.wav,"NA",Fire_01.jpg_Water_02.jpg,0,1958
4,70,370,filler,Ear.wav,"NA",Ear_02.jpg_Pear_02.jpg,1,1877
4,71,371,filler,Noodles.wav,"NA",Noodles_02.jpg_Phone_01.jpg,1,995
4,72,372,filler,Car.wav,"NA",Car_01.jpg_Bug_01.jpg,0,1164
4,73,373,filler,Hand.wav,"NA",Hand_01.jpg_Cherries_02.jpg,1,2367
4,74,374,test,mumu.wav,round,RSlide9.jpg_Eshape4.jpg,0,926
4,75,375,filler,Blueberry.wav,"NA",Blueberry_01.jpg_Watermelon_02.jpg,1,1157
4,76,376,filler,Squirrel.wav,"NA",Squirrel_01.jpg_Lemon_01.jpg,1,1293
4,77,377,filler,Cheese.wav,"NA",Cheese_01.jpg_Ball_02.jpg,1,1481
4,78,378,filler,Bubbles.wav,"NA",Bubbles_01.jpg_Key_02.jpg,0,1747
4,79,379,filler,Mouth.wav,"NA",Mouth_01.jpg_Brush_01.jpg,0,1288
4,80,380,filler,Milk.wav,"NA",Milk_01.jpg_Carrot_02.jpg,1,1706
4,81,381,filler,Blanket.wav,"NA",Blanket_02.jpg_Onion_02.jpg,1,1245
4,82,382,filler,Orangutan.wav,"NA",Orangutan_02.jpg_Blackberries_01.jpg,1,1156
4,83,383,filler,Ice.wav,"NA",Ice_01.jpg_Mouth_01.jpg,1,1113
4,84,384,filler,Bird.wav,"NA",Bird_01.jpg_Milk_02.jpg,1,2130
4,85,385,filler,Oil.wav,"NA",Oil_01.jpg_Bread_02.jpg,1,1501
4,86,386,filler,Lettuce.wav,"NA",Lettuce_02.jpg_Peanut_02.jpg,1,1817
4,87,387,filler,Brush.wav,"NA",Brush_02.jpg_Rock_02.jpg,1,1929
4,88,388,filler,Sugar Cane.wav,"NA",Sugar Cane_02.jpg_Egg_01.jpg,1,1866
4,89,389,filler,Groom.wav,"NA",Groom_02.jpg_Banana_02.jpg,1,916
4,90,390,test,lulu.wav,round,RSlide21.jpg_ESlide22.jpg,1,919
4,91,391,filler,Jelly.wav,"NA",Jelly_01.jpg_Green Bean_02.jpg,1,1264
4,92,392,filler,Cereal.wav,"NA",Cereal_02.jpg_Tummy_02.jpg,0,1371
4,93,393,filler,Juice.wav,"NA",Juice_02.jpg_Melon_01.jpg,1,2301
4,94,394,test,keke.wav,edgy,ESlide46.jpg_RSlide26.jpg,1,3485
4,95,395,filler,Shoe.wav,"NA",Shoe_02.jpg_Brush_02.jpg,1,1369
4,96,396,filler,String.wav,"NA",String_02.jpg_Nyota_01.jpg,1,1614
4,97,397,filler,Camera.wav,"NA",Camera_01.jpg_Fire_01.jpg,0,2391
4,98,398,filler,Pillow.wav,"NA",Pillow_01.jpg_Bubbles_02.jpg,0,2068
4,99,399,filler,Groom.wav,"NA",Groom_01.jpg_Fish_01.jpg,1,1065
4,100,400,filler,Ice.wav,"NA",Ice_02.jpg_Knife_02.jpg,1,1320
4,101,401,filler,Tummy.wav,"NA",Tummy_01.jpg_Blanket_01.jpg,1,1986
5,2,402,filler,Peanut.wav,"NA",Peanut_02.jpg_Hand_01.jpg,1,1424
5,3,403,filler,Sweet Potato.wav,"NA",Sweet Potato_02.jpg_Backpack_02.jpg,1,1221
5,4,404,filler,Cheese.wav,"NA",Cheese_02.jpg_Stethoscope_02.jpg,0,1812
5,5,405,filler,Dog.wav,"NA",Dog_01.jpg_Watermelon_01.jpg,1,1967
5,6,406,filler,Carrot.wav,"NA",Carrot_02.jpg_Turtle_01.jpg,0,1489
5,7,407,filler,Shirt.wav,"NA",Shirt_01.jpg_Tv_02.jpg,1,1035
5,8,408,filler,Water.wav,"NA",Water_02.jpg_Squirrel_02.jpg,1,1242
5,9,409,test,mumu.wav,round,RSlide33.jpg_Eshape4.jpg,1,806
5,10,410,filler,Peas.wav,"NA",Peas_01.jpg_Strawberries_01.jpg,1,1107
5,11,411,filler,Mushroom.wav,"NA",Mushroom_02.jpg_Orangutan_01.jpg,1,1176
5,12,412,filler,Apple.wav,"NA",Apple_02.jpg_Potato_01.jpg,1,1612
5,13,413,filler,Melon.wav,"NA",Melon_01.jpg_Blueberry_01.jpg,1,1535
5,14,414,filler,Foot.wav,"NA",Foot_02.jpg_Peas_01.jpg,1,1502
5,15,415,test,dodo.wav,round,RSlide21.jpg_ESlide18.jpg,1,885
5,16,416,filler,Jelly.wav,"NA",Jelly_02.jpg_Apple_01.jpg,1,1557
5,17,417,filler,Hose.wav,"NA",Hose_01.jpg_Elikya_02.jpg,1,1085
5,18,418,filler,Coconut.wav,"NA",Coconut_01.jpg_Yogurt_01.jpg,1,1877
5,19,419,filler,Fire.wav,"NA",Fire_02.jpg_Bug_02.jpg,1,1452
5,20,420,filler,Teco.wav,"NA",Teco_02.jpg_Maisha_02.jpg,1,1331
5,21,421,filler,Cherries.wav,"NA",Cherries_02.jpg_Grapes_01.jpg,1,874
5,22,422,filler,Bowl.wav,"NA",Bowl_02.jpg_Cereal_02.jpg,1,1021
5,23,423,filler,Shoe.wav,"NA",Shoe_01.jpg_Trash_02.jpg,1,896
5,24,424,filler,Nyota.wav,"NA",Nyota_01.jpg_Noodles_01.jpg,1,1152
5,25,425,filler,Vitamin.wav,"NA",Vitamin_01.jpg_Bunny_01.jpg,0,1203
5,26,426,filler,Fridge.wav,"NA",Fridge_02.jpg_Spoon_01.jpg,0,1241
5,27,427,filler,Pineapple.wav,"NA",Pineapple_02.jpg_Oil_01.jpg,1,1044
5,28,428,filler,Wipies.wav,"NA",Wipies_01.jpg_Cheese_01.jpg,1,2168
5,29,429,test,momo.wav,round,Rshape5.jpg_ESlide38.jpg,0,934
5,30,430,filler,Watermelon.wav,"NA",Watermelon_01.jpg_Bowl_02.jpg,0,1532
5,31,431,filler,Strawberries.wav,"NA",Strawberries_01.jpg_Fire_02.jpg,1,1241
5,32,432,filler,Ball.wav,"NA",Ball_01.jpg_Groom_01.jpg,1,1310
5,33,433,filler,Maisha.wav,"NA",Maisha_02.jpg_Bird_01.jpg,1,1542
5,34,434,test,kiki.wav,edgy,Eshape.jpg_RSlide17.jpg,1,1085
5,35,435,filler,Fish.wav,"NA",Fish_01.jpg_Peaches_02.jpg,1,1935
5,36,436,filler,Melon.wav,"NA",Melon_02.jpg_Pineapple_01.jpg,0,1448
5,37,437,filler,Squirrel.wav,"NA",Squirrel_02.jpg_Raisin_02.jpg,1,1015
5,38,438,filler,Brush.wav,"NA",Brush_01.jpg_Hose_02.jpg,1,1523
5,39,439,filler,Ball.wav,"NA",Ball_02.jpg_Matata_01.jpg,1,934
5,40,440,filler,Celery.wav,"NA",Celery_01.jpg_Lighter_02.jpg,1,979
5,41,441,filler,Stethoscope.wav,"NA",Stethoscope_02.jpg_Bubbles_01.jpg,0,1651
5,42,442,filler,Pillow.wav,"NA",Pillow_02.jpg_Hat_02.jpg,1,1442
5,43,443,filler,Grapes.wav,"NA",Grapes_02.jpg_Snake_02.jpg,1,849
5,44,444,filler,Lighter.wav,"NA",Lighter_01.jpg_Teco_02.jpg,1,1378
5,45,445,filler,Trash.wav,"NA",Trash_02.jpg_Blueberry_02.jpg,1,2122
5,46,446,filler,Groom.wav,"NA",Groom_01.jpg_Ball_01.jpg,1,1419
5,47,447,filler,Baby.wav,"NA",Baby_01.jpg_Snake_01.jpg,1,1938
5,48,448,filler,Teco.wav,"NA",Teco_01.jpg_Cereal_02.jpg,1,1693
5,49,449,filler,Gorilla.wav,"NA",Gorilla_01.jpg_Carrot_01.jpg,1,1328
5,50,450,test,zeze.wav,edgy,ESlide34.jpg_RSlide2.jpg,1,900
5,51,451,filler,Carrot.wav,"NA",Carrot_02.jpg_Baby_01.jpg,0,1122
5,52,452,filler,Wipies.wav,"NA",Wipies_02.jpg_Bunny_01.jpg,1,1503
5,53,453,filler,Fridge.wav,"NA",Fridge_01.jpg_Grapes_01.jpg,0,1196
5,54,454,filler,Blueberry.wav,"NA",Blueberry_01.jpg_Straw_02.jpg,1,868
5,55,455,filler,Fish.wav,"NA",Fish_01.jpg_Kanzi_02.jpg,1,1227
5,56,456,test,fefe.wav,edgy,Eshape3.jpg_RSlide37.jpg,1,1150
5,57,457,filler,Hat.wav,"NA",Hat_02.jpg_Nyota_02.jpg,1,1637
5,58,458,filler,Hose.wav,"NA",Hose_01.jpg_Swelling_02.jpg,1,1513
5,59,459,filler,Vitamin.wav,"NA",Vitamin_01.jpg_Bunny_02.jpg,0,1199
5,60,460,filler,Tv.wav,"NA",Tv_02.jpg_Mouth_01.jpg,1,1119
5,61,461,filler,Elikya.wav,"NA",Elikya_02.jpg_Baby_02.jpg,1,1598
5,62,462,filler,Turtle.wav,"NA",Turtle_01.jpg_Vitamin_02.jpg,1,1369
5,63,463,filler,Grapes.wav,"NA",Grapes_01.jpg_Trash_02.jpg,1,1058
5,64,464,filler,Lettuce.wav,"NA",Lettuce_01.jpg_Pear_02.jpg,1,1638
5,65,465,filler,Cereal.wav,"NA",Cereal_01.jpg_String_01.jpg,1,973
5,66,466,filler,Milk.wav,"NA",Milk_02.jpg_Lighter_02.jpg,1,1853
5,67,467,filler,Apricot.wav,"NA",Apricot_01.jpg_Stick_01.jpg,1,1150
5,68,468,filler,Green Bean.wav,"NA",Green Bean_02.jpg_Knife_01.jpg,1,1013
5,69,469,test,dudu.wav,round,RSlide9.jpg_ESlide22.jpg,0,775
5,70,470,filler,Backpack.wav,"NA",Backpack_02.jpg_Grapes_02.jpg,1,1175
5,71,471,filler,Elikya.wav,"NA",Elikya_01.jpg_Egg_01.jpg,1,1202
5,72,472,filler,Trash.wav,"NA",Trash_01.jpg_Knife_02.jpg,1,1192
5,73,473,filler,Rock.wav,"NA",Rock_01.jpg_Turtle_02.jpg,0,1643
5,74,474,filler,Car.wav,"NA",Car_01.jpg_Noodles_01.jpg,0,1748
5,75,475,filler,Shoe.wav,"NA",Shoe_01.jpg_Maisha_01.jpg,1,1191
5,76,476,test,keke.wav,edgy,ESlide6.jpg_RSlide19.jpg,1,957
5,77,477,filler,Shoe.wav,"NA",Shoe_02.jpg_Pineapple_01.jpg,1,1608
5,78,478,filler,Orangutan.wav,"NA",Orangutan_01.jpg_Blueberry_02.jpg,1,1262
5,79,479,filler,Bubbles.wav,"NA",Bubbles_02.jpg_Straw_01.jpg,1,1487
5,80,480,filler,Orange.wav,"NA",Orange_01.jpg_Apricot_02.jpg,0,1270
5,81,481,filler,Mouth.wav,"NA",Mouth_02.jpg_Jelly_02.jpg,1,1486
5,82,482,filler,Snake.wav,"NA",Snake_01.jpg_Bowl_02.jpg,1,1373
5,83,483,test,nunu.wav,round,RSlide27.jpg_ESlide8.jpg,1,912
5,84,484,filler,Potato.wav,"NA",Potato_01.jpg_Shirt_02.jpg,1,996
5,85,485,filler,Stethoscope.wav,"NA",Stethoscope_01.jpg_Tomato_01.jpg,1,1243
5,86,486,filler,Baby.wav,"NA",Baby_02.jpg_Banana_02.jpg,1,1173
5,87,487,filler,Kanzi.wav,"NA",Kanzi_02.jpg_Toothbrush_01.jpg,0,1742
5,88,488,filler,Lemon.wav,"NA",Lemon_02.jpg_Milk_02.jpg,0,1433
5,89,489,filler,Car.wav,"NA",Car_02.jpg_String_02.jpg,1,1021
5,90,490,filler,Toothbrush.wav,"NA",Toothbrush_02.jpg_Hose_01.jpg,0,893
5,91,491,filler,Fish.wav,"NA",Fish_02.jpg_Strawberries_02.jpg,1,1190
5,92,492,filler,Ball.wav,"NA",Ball_01.jpg_Groom_01.jpg,1,867
5,93,493,filler,Tomato.wav,"NA",Tomato_01.jpg_Shoe_01.jpg,1,1369
5,94,494,filler,Kanzi.wav,"NA",Kanzi_01.jpg_Shirt_01.jpg,0,1248
5,95,495,filler,Watermelon.wav,"NA",Watermelon_02.jpg_Potato_01.jpg,0,1416
5,96,496,filler,Pinecone.wav,"NA",Pinecone_01.jpg_Groom_02.jpg,1,989
5,97,497,test,fifi.wav,edgy,ESlide46.jpg_RSlide26.jpg,1,888
5,98,498,filler,Stick.wav,"NA",Stick_02.jpg_Mushroom_01.jpg,1,1663
5,99,499,filler,Mushroom.wav,"NA",Mushroom_02.jpg_Apricot_01.jpg,1,1864
5,100,500,filler,Toothbrush.wav,"NA",Toothbrush_01.jpg_Swelling_01.jpg,1,1049
5,101,501,filler,Blanket.wav,"NA",Blanket_01.jpg_Hat_01.jpg,1,1988
6,2,502,filler,Nyota.wav,"NA",Nyota_01.jpg_Matata_01.jpg,0,1328
6,3,503,filler,Brush.wav,"NA",Brush_01.jpg_Fish_02.jpg,1,1591
6,4,504,filler,Bowl.wav,"NA",Bowl_02.jpg_Raisin_01.jpg,1,1887
6,5,505,filler,Jelly.wav,"NA",Jelly_02.jpg_Tv_02.jpg,0,1174
6,6,506,filler,Noodles.wav,"NA",Noodles_01.jpg_Potato_02.jpg,1,1070
6,7,507,test,pipi.wav,edgy,Eshape4.jpg_RSlide21.jpg,0,839
6,8,508,filler,Egg.wav,"NA",Egg_01.jpg_Cherries_01.jpg,0,1260
6,9,509,filler,Popsicle.wav,"NA",Popsicle_02.jpg_Orangutan_02.jpg,1,955
6,10,510,filler,Celery.wav,"NA",Celery_01.jpg_Pillow_01.jpg,0,1855
6,11,511,filler,Cherries.wav,"NA",Cherries_02.jpg_Trash_01.jpg,1,1632
6,12,512,filler,Potato.wav,"NA",Potato_02.jpg_Fire_01.jpg,1,855
6,13,513,filler,Turtle.wav,"NA",Turtle_02.jpg_Carrot_02.jpg,1,1519
6,14,514,filler,Mouth.wav,"NA",Mouth_01.jpg_Wipies_01.jpg,1,1311
6,15,515,filler,Teco.wav,"NA",Teco_02.jpg_Orangutan_01.jpg,1,1056
6,16,516,test,sese.wav,edgy,ESlide6.jpg_RSlide33.jpg,1,832
6,17,517,filler,Backpack.wav,"NA",Backpack_01.jpg_Hand_01.jpg,0,947
6,18,518,filler,Pear.wav,"NA",Pear_02.jpg_Key_01.jpg,0,1356
6,19,519,filler,Foot.wav,"NA",Foot_01.jpg_Lighter_01.jpg,0,1680
6,20,520,filler,Yogurt.wav,"NA",Yogurt_02.jpg_Balloon_02.jpg,1,1136
6,21,521,filler,Ball.wav,"NA",Ball_02.jpg_Bird_01.jpg,0,1519
6,22,522,filler,Egg.wav,"NA",Egg_02.jpg_Cooler_01.jpg,1,739
6,23,523,filler,Dog.wav,"NA",Dog_02.jpg_Popsicle_02.jpg,1,2048
6,24,524,filler,Fire.wav,"NA",Fire_02.jpg_Tea_02.jpg,1,1198
6,25,525,test,zizi.wav,edgy,ESlide38.jpg_Rshape5.jpg,0,935
6,26,526,filler,Bubbles.wav,"NA",Bubbles_01.jpg_Bird_02.jpg,0,1727
6,27,527,filler,Banana.wav,"NA",Banana_02.jpg_Egg_02.jpg,1,1075
6,28,528,filler,Pinecone.wav,"NA",Pinecone_02.jpg_Hose_02.jpg,1,1172
6,29,529,filler,Shirt.wav,"NA",Shirt_02.jpg_Teco_02.jpg,1,1286
6,30,530,filler,Bunny.wav,"NA",Bunny_01.jpg_Camera_01.jpg,1,1111
6,31,531,filler,Spoon.wav,"NA",Spoon_02.jpg_Maisha_02.jpg,1,1085
6,32,532,filler,Juice.wav,"NA",Juice_01.jpg_Cooler_02.jpg,0,1210
6,33,533,filler,Hand.wav,"NA",Hand_02.jpg_Sugar Cane_02.jpg,1,1291
6,34,534,filler,Sweet Potato.wav,"NA",Sweet Potato_01.jpg_Strawberries_01.jpg,1,1383
6,35,535,filler,Blueberry.wav,"NA",Blueberry_02.jpg_Blanket_01.jpg,1,1164
6,36,536,test,nono.wav,round,RSlide19.jpg_ESlide8.jpg,0,771
6,37,537,filler,Bird.wav,"NA",Bird_02.jpg_Mushroom_02.jpg,1,1696
6,38,538,filler,Shirt.wav,"NA",Shirt_01.jpg_Lemon_02.jpg,1,1649
6,39,539,filler,Melon.wav,"NA",Melon_01.jpg_Blanket_02.jpg,1,1075
6,40,540,filler,Squirrel.wav,"NA",Squirrel_02.jpg_Camera_02.jpg,0,1204
6,41,541,filler,Grapes.wav,"NA",Grapes_02.jpg_Celery_01.jpg,1,988
6,42,542,filler,Blackberries.wav,"NA",Blackberries_02.jpg_Pinecone_01.jpg,1,1319
6,43,543,filler,Tea.wav,"NA",Tea_01.jpg_Dog_02.jpg,1,1666
6,44,544,filler,Nyota.wav,"NA",Nyota_02.jpg_Peas_01.jpg,1,1480
6,45,545,filler,Cheese.wav,"NA",Cheese_02.jpg_Stethoscope_02.jpg,1,1144
6,46,546,filler,Peaches.wav,"NA",Peaches_01.jpg_Turtle_01.jpg,1,1012
6,47,547,filler,Pillow.wav,"NA",Pillow_01.jpg_Yogurt_01.jpg,0,2546
6,48,548,filler,Trash.wav,"NA",Trash_02.jpg_Shoe_02.jpg,1,1700
6,49,549,filler,Pineapple.wav,"NA",Pineapple_02.jpg_Ice_02.jpg,1,983
6,50,550,test,lolo.wav,round,RSlide37.jpg_ESlide34.jpg,1,911
6,51,551,filler,Key.wav,"NA",Key_01.jpg_Blackberries_01.jpg,1,859
6,52,552,filler,Lighter.wav,"NA",Lighter_02.jpg_Peanut_02.jpg,1,1575
6,53,553,test,pepe.wav,edgy,ESlide22.jpg_RSlide2.jpg,0,870
6,54,554,filler,Tomato.wav,"NA",Tomato_02.jpg_Nyota_01.jpg,1,799
6,55,555,filler,Coconut.wav,"NA",Coconut_02.jpg_Brush_02.jpg,1,1060
6,56,556,filler,Noodles.wav,"NA",Noodles_02.jpg_Watermelon_02.jpg,1,1311
6,57,557,filler,Apple.wav,"NA",Apple_02.jpg_Oil_02.jpg,0,1250
6,58,558,filler,Sweet Potato.wav,"NA",Sweet Potato_02.jpg_Fridge_02.jpg,1,2468
6,59,559,filler,Sugar Cane.wav,"NA",Sugar Cane_01.jpg_Bug_01.jpg,1,1028
6,60,560,filler,Lemon.wav,"NA",Lemon_01.jpg_Phone_02.jpg,1,1408
6,61,561,filler,Strawberries.wav,"NA",Strawberries_01.jpg_Elikya_02.jpg,1,1283
6,62,562,filler,Phone.wav,"NA",Phone_02.jpg_Pear_01.jpg,1,1368
6,63,563,filler,Cooler.wav,"NA",Cooler_01.jpg_Green Bean_02.jpg,1,1184
6,64,564,filler,String.wav,"NA",String_01.jpg_Ice_01.jpg,1,1179
6,65,565,filler,Apple.wav,"NA",Apple_01.jpg_Key_02.jpg,0,4232
6,66,566,filler,Apricot.wav,"NA",Apricot_02.jpg_Peaches_01.jpg,0,1212
6,67,567,filler,Hose.wav,"NA",Hose_02.jpg_Water_01.jpg,1,1283
6,68,568,test,gugu.wav,round,RSlide17.jpg_ESlide18.jpg,0,1024
6,69,569,filler,Peas.wav,"NA",Peas_01.jpg_Bread_02.jpg,1,1644
6,70,570,filler,Mushroom.wav,"NA",Mushroom_01.jpg_Bug_02.jpg,1,908
6,71,571,filler,Lighter.wav,"NA",Lighter_01.jpg_Juice_02.jpg,0,1980
6,72,572,filler,Cereal.wav,"NA",Cereal_02.jpg_Celery_02.jpg,1,2072
6,73,573,filler,Tummy.wav,"NA",Tummy_02.jpg_Oil_01.jpg,1,2228
6,74,574,filler,Orangutan.wav,"NA",Orangutan_02.jpg_Stethoscope_01.jpg,1,944
6,75,575,filler,Melon.wav,"NA",Melon_02.jpg_Banana_01.jpg,0,3243
6,76,576,filler,Blanket.wav,"NA",Blanket_02.jpg_Bubbles_01.jpg,0,1072
6,77,577,filler,Raisin.wav,"NA",Raisin_02.jpg_Spoon_01.jpg,1,1220
6,78,578,filler,Ice.wav,"NA",Ice_02.jpg_Brush_01.jpg,1,1075
6,79,579,filler,Swelling.wav,"NA",Swelling_02.jpg_Balloon_01.jpg,1,1928
6,80,580,test,lulu.wav,round,RSlide27.jpg_Eshape3.jpg,1,1128
6,81,581,filler,Peanut.wav,"NA",Peanut_02.jpg_Sweet Potato_02.jpg,1,1132
6,82,582,filler,Brush.wav,"NA",Brush_02.jpg_Cheese_01.jpg,1,2268
6,83,583,filler,Ice.wav,"NA",Ice_01.jpg_Squirrel_02.jpg,1,1456
6,84,584,filler,Balloon.wav,"NA",Balloon_02.jpg_Car_01.jpg,1,1120
6,85,585,filler,Green Bean.wav,"NA",Green Bean_01.jpg_Melon_02.jpg,1,2059
6,86,586,filler,Peas.wav,"NA",Peas_02.jpg_Wipies_02.jpg,1,1260
6,87,587,filler,Strawberries.wav,"NA",Strawberries_02.jpg_Orange_01.jpg,1,1852
6,88,588,test,gogo.wav,round,RSlide9.jpg_ESlide46.jpg,0,1120
6,89,589,filler,Ear.wav,"NA",Ear_02.jpg_Blackberries_02.jpg,1,1264
6,90,590,filler,Phone.wav,"NA",Phone_01.jpg_Orange_02.jpg,1,1119
6,91,591,filler,Oil.wav,"NA",Oil_01.jpg_Ball_02.jpg,1,999
6,92,592,filler,Blackberries.wav,"NA",Blackberries_01.jpg_Apple_01.jpg,1,924
6,93,593,test,sisi.wav,edgy,Eshape.jpg_RSlide26.jpg,0,1075
6,94,594,filler,Pineapple.wav,"NA",Pineapple_01.jpg_Hat_02.jpg,1,1052
6,95,595,filler,Orange.wav,"NA",Orange_02.jpg_Pillow_02.jpg,1,2023
6,96,596,filler,Bird.wav,"NA",Bird_01.jpg_Fish_01.jpg,1,1656
6,97,597,filler,Ear.wav,"NA",Ear_01.jpg_Kanzi_01.jpg,1,1627
6,98,598,filler,Fridge.wav,"NA",Fridge_02.jpg_Sugar Cane_01.jpg,1,1475
6,99,599,filler,Peaches.wav,"NA",Peaches_02.jpg_Squirrel_01.jpg,1,1108
6,100,600,filler,Oil.wav,"NA",Oil_02.jpg_Vitamin_01.jpg,1,1275
6,101,601,filler,Rock.wav,"NA",Rock_02.jpg_Tomato_02.jpg,0,1624
7,2,602,filler,Water.wav,"NA",Water_02.jpg_Backpack_01.jpg,1,1084
7,3,603,filler,Celery.wav,"NA",Celery_02.jpg_Bowl_01.jpg,1,1304
7,4,604,filler,Bread.wav,"NA",Bread_02.jpg_Cherries_02.jpg,0,867
7,5,605,test,gogo.wav,round,RSlide21.jpg_Eshape3.jpg,0,1005
7,6,606,filler,Knife.wav,"NA",Knife_01.jpg_Onion_02.jpg,1,1124
7,7,607,filler,Squirrel.wav,"NA",Squirrel_01.jpg_Tummy_02.jpg,1,1040
7,8,608,filler,Lettuce.wav,"NA",Lettuce_02.jpg_Snake_02.jpg,0,1477
7,9,609,filler,Straw.wav,"NA",Straw_02.jpg_Cereal_01.jpg,1,1056
7,10,610,filler,Vitamin.wav,"NA",Vitamin_02.jpg_Car_02.jpg,0,1893
7,11,611,filler,Groom.wav,"NA",Groom_02.jpg_Melon_01.jpg,1,1160
7,12,612,filler,Peanut.wav,"NA",Peanut_01.jpg_Water_02.jpg,1,1037
7,13,613,filler,Hat.wav,"NA",Hat_01.jpg_Teco_01.jpg,0,1496
7,14,614,filler,Balloon.wav,"NA",Balloon_01.jpg_Bubbles_02.jpg,1,1245
7,15,615,filler,Coconut.wav,"NA",Coconut_01.jpg_Fridge_01.jpg,1,1525
7,16,616,filler,Sugar Cane.wav,"NA",Sugar Cane_02.jpg_Elikya_01.jpg,1,1084
7,17,617,filler,Camera.wav,"NA",Camera_02.jpg_Peas_02.jpg,1,1521
7,18,618,test,lolo.wav,round,RSlide27.jpg_ESlide22.jpg,0,871
7,19,619,filler,Maisha.wav,"NA",Maisha_02.jpg_Ear_01.jpg,0,2072
7,20,620,filler,Cooler.wav,"NA",Cooler_02.jpg_Green Bean_01.jpg,1,1145
7,21,621,filler,Dog.wav,"NA",Dog_01.jpg_Fire_02.jpg,1,1431
7,22,622,filler,Straw.wav,"NA",Straw_01.jpg_Tummy_01.jpg,0,1203
7,23,623,test,momo.wav,round,RSlide37.jpg_ESlide6.jpg,1,884
7,24,624,filler,Tea.wav,"NA",Tea_02.jpg_Foot_01.jpg,0,1092
7,25,625,filler,Carrot.wav,"NA",Carrot_01.jpg_Lettuce_02.jpg,1,1585
7,26,626,filler,Foot.wav,"NA",Foot_02.jpg_Noodles_02.jpg,0,1120
7,27,627,filler,Bowl.wav,"NA",Bowl_01.jpg_Milk_01.jpg,1,1228
7,28,628,filler,Knife.wav,"NA",Knife_02.jpg_Ear_02.jpg,1,884
7,29,629,filler,Pear.wav,"NA",Pear_01.jpg_Peaches_02.jpg,1,1828
7,30,630,filler,Stick.wav,"NA",Stick_01.jpg_Blueberry_01.jpg,1,1013
7,31,631,filler,Matata.wav,"NA",Matata_02.jpg_Coconut_01.jpg,1,1077
7,32,632,filler,Wipies.wav,"NA",Wipies_01.jpg_Gorilla_01.jpg,1,1245
7,33,633,filler,Juice.wav,"NA",Juice_02.jpg_Spoon_02.jpg,1,1360
7,34,634,filler,Tummy.wav,"NA",Tummy_01.jpg_Yogurt_02.jpg,0,1516
7,35,635,filler,Popsicle.wav,"NA",Popsicle_01.jpg_Peanut_01.jpg,1,1080
7,36,636,test,pipi.wav,edgy,ESlide34.jpg_RSlide17.jpg,1,788
7,37,637,filler,Watermelon.wav,"NA",Watermelon_01.jpg_Lettuce_01.jpg,1,2416
7,38,638,filler,Snake.wav,"NA",Snake_02.jpg_Toothbrush_02.jpg,1,957
7,39,639,filler,Bug.wav,"NA",Bug_02.jpg_Lemon_01.jpg,1,960
7,40,640,filler,Jelly.wav,"NA",Jelly_01.jpg_Sweet Potato_01.jpg,1,2644
7,41,641,filler,Banana.wav,"NA",Banana_01.jpg_Gorilla_02.jpg,1,1068
7,42,642,filler,Bread.wav,"NA",Bread_01.jpg_Juice_01.jpg,1,1713
7,43,643,filler,Cherries.wav,"NA",Cherries_01.jpg_Dog_01.jpg,1,1140
7,44,644,filler,Camera.wav,"NA",Camera_01.jpg_Rock_02.jpg,0,1542
7,45,645,filler,Key.wav,"NA",Key_02.jpg_Tea_01.jpg,1,960
7,46,646,filler,Matata.wav,"NA",Matata_01.jpg_Hand_02.jpg,1,1488
7,47,647,filler,Cheese.wav,"NA",Cheese_01.jpg_Backpack_02.jpg,1,1356
7,48,648,filler,Maisha.wav,"NA",Maisha_01.jpg_Matata_02.jpg,0,1211
7,49,649,filler,Milk.wav,"NA",Milk_01.jpg_Phone_01.jpg,0,4112
7,50,650,test,pepe.wav,edgy,ESlide46.jpg_Rshape5.jpg,0,1425
7,51,651,filler,Spoon.wav,"NA",Spoon_01.jpg_Bread_01.jpg,1,1912
7,52,652,filler,Water.wav,"NA",Water_01.jpg_Watermelon_01.jpg,1,1480
7,53,653,filler,Yogurt.wav,"NA",Yogurt_01.jpg_Cheese_02.jpg,1,1384
7,54,654,filler,Gorilla.wav,"NA",Gorilla_02.jpg_Rock_01.jpg,1,920
7,55,655,filler,Fire.wav,"NA",Fire_01.jpg_Foot_02.jpg,1,1197
7,56,656,filler,Swelling.wav,"NA",Swelling_01.jpg_Onion_01.jpg,1,2047
7,57,657,filler,Onion.wav,"NA",Onion_02.jpg_Mouth_02.jpg,1,1320
7,58,658,filler,Bunny.wav,"NA",Bunny_02.jpg_Coconut_02.jpg,1,1273
7,59,659,test,zizi.wav,edgy,ESlide18.jpg_RSlide33.jpg,1,913
7,60,660,filler,Stethoscope.wav,"NA",Stethoscope_02.jpg_Tv_01.jpg,0,1296
7,61,661,filler,Hand.wav,"NA",Hand_01.jpg_Apple_02.jpg,1,1493
7,62,662,filler,Onion.wav,"NA",Onion_01.jpg_Stick_02.jpg,1,1117
7,63,663,filler,String.wav,"NA",String_02.jpg_Raisin_02.jpg,1,1149
7,64,664,filler,Pillow.wav,"NA",Pillow_02.jpg_Pineapple_02.jpg,1,1061
7,65,665,filler,Tv.wav,"NA",Tv_01.jpg_Pinecone_02.jpg,1,820
7,66,666,filler,Bug.wav,"NA",Bug_01.jpg_Popsicle_01.jpg,1,2532
7,67,667,filler,Raisin.wav,"NA",Raisin_01.jpg_Jelly_01.jpg,1,1028
7,68,668,test,kiki.wav,edgy,ESlide8.jpg_RSlide9.jpg,1,1204
7,69,669,filler,Cherries.wav,"NA",Cherries_01.jpg_Baby_01.jpg,1,1517
7,70,670,filler,Blueberry.wav,"NA",Blueberry_02.jpg_Swelling_02.jpg,1,1913
7,71,671,filler,Blackberries.wav,"NA",Blackberries_01.jpg_Banana_01.jpg,1,1504
7,72,672,filler,Apricot.wav,"NA",Apricot_01.jpg_Peas_01.jpg,1,1497
7,73,673,filler,Rock.wav,"NA",Rock_02.jpg_Cherries_02.jpg,0,1056
7,74,674,filler,Orangutan.wav,"NA",Orangutan_02.jpg_Water_02.jpg,1,1373
7,75,675,filler,Stethoscope.wav,"NA",Stethoscope_02.jpg_Blanket_01.jpg,1,1428
7,76,676,filler,Tummy.wav,"NA",Tummy_01.jpg_Elikya_02.jpg,1,2228
7,77,677,filler,Celery.wav,"NA",Celery_02.jpg_Bubbles_01.jpg,1,1547
7,78,678,filler,Pear.wav,"NA",Pear_01.jpg_Tummy_02.jpg,1,1309
7,79,679,filler,Spoon.wav,"NA",Spoon_02.jpg_Blueberry_02.jpg,1,2280
7,80,680,test,nunu.wav,round,RSlide19.jpg_ESlide38.jpg,1,1201
7,81,681,filler,Orange.wav,"NA",Orange_02.jpg_Hose_01.jpg,0,1576
7,82,682,filler,Groom.wav,"NA",Groom_01.jpg_Matata_02.jpg,1,949
7,83,683,filler,Backpack.wav,"NA",Backpack_01.jpg_Shoe_02.jpg,1,1081
7,84,684,filler,Ice.wav,"NA",Ice_02.jpg_Yogurt_02.jpg,0,1862
7,85,685,filler,Noodles.wav,"NA",Noodles_02.jpg_Dog_02.jpg,1,1116
7,86,686,filler,Bunny.wav,"NA",Bunny_01.jpg_Fire_01.jpg,1,1545
7,87,687,filler,Knife.wav,"NA",Knife_02.jpg_Spoon_02.jpg,1,2513
7,88,688,filler,Ear.wav,"NA",Ear_01.jpg_Coconut_02.jpg,1,884
7,89,689,filler,Lemon.wav,"NA",Lemon_02.jpg_Bug_01.jpg,1,888
7,90,690,test,sese.wav,edgy,Eshape.jpg_RSlide2.jpg,1,1136
7,91,691,filler,Strawberries.wav,"NA",Strawberries_02.jpg_Groom_02.jpg,1,957
7,92,692,filler,Cheese.wav,"NA",Cheese_01.jpg_Egg_01.jpg,1,1973
7,93,693,filler,Gorilla.wav,"NA",Gorilla_02.jpg_Balloon_01.jpg,1,1105
7,94,694,filler,Ball.wav,"NA",Ball_01.jpg_Fire_02.jpg,1,1116
7,95,695,filler,Hose.wav,"NA",Hose_01.jpg_Snake_01.jpg,1,1495
7,96,696,filler,Ice.wav,"NA",Ice_01.jpg_Mushroom_02.jpg,1,1716
7,97,697,test,mumu.wav,round,RSlide26.jpg_Eshape4.jpg,0,1016
7,98,698,filler,Fridge.wav,"NA",Fridge_02.jpg_String_01.jpg,1,1152
7,99,699,filler,Teco.wav,"NA",Teco_02.jpg_Mouth_02.jpg,1,1357
7,100,700,filler,Egg.wav,"NA",Egg_02.jpg_Carrot_02.jpg,1,1207
7,101,701,filler,Elikya.wav,"NA",Elikya_01.jpg_Orangutan_01.jpg,1,1597
8,2,702,filler,Dog.wav,"NA",Dog_01.jpg_Teco_01.jpg,0,1497
8,3,703,test,keke.wav,edgy,ESlide22.jpg_RSlide21.jpg,0,1145
8,4,704,filler,Tv.wav,"NA",Tv_02.jpg_Jelly_02.jpg,1,1109
8,5,705,filler,Lighter.wav,"NA",Lighter_01.jpg_Peas_02.jpg,1,1109
8,6,706,filler,Bowl.wav,"NA",Bowl_01.jpg_Toothbrush_01.jpg,1,2121
8,7,707,filler,Fire.wav,"NA",Fire_02.jpg_Kanzi_01.jpg,1,973
8,8,708,filler,Straw.wav,"NA",Straw_01.jpg_Kanzi_02.jpg,1,1669
8,9,709,filler,Teco.wav,"NA",Teco_01.jpg_Blackberries_01.jpg,1,1308
8,10,710,filler,Lemon.wav,"NA",Lemon_01.jpg_Foot_01.jpg,0,1045
8,11,711,filler,Squirrel.wav,"NA",Squirrel_01.jpg_Sweet Potato_02.jpg,1,1185
8,12,712,filler,Spoon.wav,"NA",Spoon_01.jpg_Cereal_02.jpg,1,925
8,13,713,filler,Sugar Cane.wav,"NA",Sugar Cane_01.jpg_Watermelon_01.jpg,1,1653
8,14,714,filler,Ear.wav,"NA",Ear_02.jpg_Lighter_01.jpg,1,1817
8,15,715,filler,Cereal.wav,"NA",Cereal_02.jpg_Phone_01.jpg,1,1540
8,16,716,filler,Wipies.wav,"NA",Wipies_02.jpg_Onion_01.jpg,1,1296
8,17,717,filler,Bubbles.wav,"NA",Bubbles_02.jpg_String_02.jpg,0,1465
8,18,718,filler,Sugar Cane.wav,"NA",Sugar Cane_02.jpg_Key_01.jpg,0,1921
8,19,719,test,zeze.wav,edgy,ESlide18.jpg_RSlide2.jpg,1,1141
8,20,720,filler,Cooler.wav,"NA",Cooler_02.jpg_Potato_01.jpg,1,1784
8,21,721,filler,Mushroom.wav,"NA",Mushroom_02.jpg_Pear_02.jpg,1,1165
8,22,722,filler,Carrot.wav,"NA",Carrot_02.jpg_Orange_01.jpg,1,1465
8,23,723,filler,Yogurt.wav,"NA",Yogurt_02.jpg_Bird_01.jpg,1,1080
8,24,724,filler,Blanket.wav,"NA",Blanket_01.jpg_Celery_01.jpg,1,1832
8,25,725,test,lulu.wav,round,RSlide9.jpg_ESlide8.jpg,1,1184
8,26,726,filler,Phone.wav,"NA",Phone_01.jpg_Blanket_02.jpg,1,937
8,27,727,filler,Camera.wav,"NA",Camera_01.jpg_Egg_02.jpg,1,1013
8,28,728,filler,Blueberry.wav,"NA",Blueberry_01.jpg_Swelling_01.jpg,1,1365
8,29,729,filler,Sweet Potato.wav,"NA",Sweet Potato_01.jpg_Cheese_02.jpg,1,1133
8,30,730,filler,Pinecone.wav,"NA",Pinecone_02.jpg_Bunny_02.jpg,1,949
8,31,731,filler,Celery.wav,"NA",Celery_01.jpg_Apple_01.jpg,1,1137
8,32,732,filler,Peaches.wav,"NA",Peaches_02.jpg_Apricot_01.jpg,0,677
8,33,733,filler,Apricot.wav,"NA",Apricot_02.jpg_Shirt_02.jpg,1,1021
8,34,734,filler,Trash.wav,"NA",Trash_02.jpg_Green Bean_02.jpg,1,1157
8,35,735,filler,Balloon.wav,"NA",Balloon_02.jpg_Carrot_01.jpg,1,1329
8,36,736,test,dodo.wav,round,RSlide26.jpg_Eshape3.jpg,1,861
8,37,737,filler,Water.wav,"NA",Water_01.jpg_Oil_02.jpg,0,1585
8,38,738,filler,String.wav,"NA",String_02.jpg_Knife_02.jpg,1,1109
8,39,739,filler,Turtle.wav,"NA",Turtle_01.jpg_Lettuce_01.jpg,1,1201
8,40,740,filler,Bird.wav,"NA",Bird_01.jpg_Apricot_02.jpg,1,1169
8,41,741,filler,Popsicle.wav,"NA",Popsicle_02.jpg_Fish_01.jpg,1,865
8,42,742,filler,Oil.wav,"NA",Oil_02.jpg_Coconut_01.jpg,1,1716
8,43,743,filler,Milk.wav,"NA",Milk_01.jpg_Pinecone_02.jpg,1,1289
8,44,744,filler,Tv.wav,"NA",Tv_01.jpg_Baby_02.jpg,1,1238
8,45,745,filler,Raisin.wav,"NA",Raisin_01.jpg_Car_01.jpg,1,1185
8,46,746,filler,Apple.wav,"NA",Apple_01.jpg_Bunny_01.jpg,0,1180
8,47,747,filler,Elikya.wav,"NA",Elikya_02.jpg_Peaches_02.jpg,1,1101
8,48,748,filler,Banana.wav,"NA",Banana_02.jpg_Ear_02.jpg,1,900
8,49,749,filler,Car.wav,"NA",Car_01.jpg_Trash_01.jpg,1,2348
8,50,750,test,fifi.wav,edgy,Eshape4.jpg_RSlide37.jpg,0,832
8,51,751,filler,Cereal.wav,"NA",Cereal_01.jpg_Apple_02.jpg,1,1197
8,52,752,filler,Bug.wav,"NA",Bug_02.jpg_Noodles_01.jpg,1,1161
8,53,753,filler,Fish.wav,"NA",Fish_02.jpg_Ice_02.jpg,1,1377
8,54,754,filler,Stethoscope.wav,"NA",Stethoscope_01.jpg_Backpack_02.jpg,0,1513
8,55,755,filler,Mouth.wav,"NA",Mouth_02.jpg_Ice_01.jpg,1,1617
8,56,756,filler,Pineapple.wav,"NA",Pineapple_01.jpg_Tea_01.jpg,1,908
8,57,757,filler,Banana.wav,"NA",Banana_01.jpg_Tomato_01.jpg,1,1732
8,58,758,filler,Mouth.wav,"NA",Mouth_01.jpg_Spoon_01.jpg,1,941
8,59,759,filler,Kanzi.wav,"NA",Kanzi_02.jpg_Mouth_01.jpg,1,1193
8,60,760,test,gugu.wav,round,RSlide19.jpg_ESlide38.jpg,1,753
8,61,761,filler,Car.wav,"NA",Car_02.jpg_Fish_02.jpg,1,1633
8,62,762,filler,Matata.wav,"NA",Matata_02.jpg_Juice_02.jpg,1,1273
8,63,763,filler,Hand.wav,"NA",Hand_01.jpg_Lemon_01.jpg,1,929
8,64,764,filler,Swelling.wav,"NA",Swelling_01.jpg_Rock_01.jpg,1,1320
8,65,765,filler,Lettuce.wav,"NA",Lettuce_01.jpg_Toothbrush_02.jpg,0,1173
8,66,766,filler,Ball.wav,"NA",Ball_02.jpg_Raisin_02.jpg,1,1877
8,67,767,test,dudu.wav,round,RSlide17.jpg_ESlide6.jpg,1,928
8,68,768,filler,Tummy.wav,"NA",Tummy_02.jpg_Stick_01.jpg,1,1345
8,69,769,filler,Tea.wav,"NA",Tea_01.jpg_Cooler_02.jpg,1,2081
8,70,770,filler,Juice.wav,"NA",Juice_01.jpg_Knife_01.jpg,1,844
8,71,771,filler,Water.wav,"NA",Water_02.jpg_Ball_01.jpg,1,1676
8,72,772,filler,Shoe.wav,"NA",Shoe_02.jpg_Cherries_01.jpg,1,2317
8,73,773,filler,Milk.wav,"NA",Milk_02.jpg_Pear_01.jpg,1,2032
8,74,774,filler,Blanket.wav,"NA",Blanket_02.jpg_Lighter_02.jpg,0,1521
8,75,775,filler,Hand.wav,"NA",Hand_02.jpg_Pillow_01.jpg,1,1137
8,76,776,filler,Carrot.wav,"NA",Carrot_01.jpg_Maisha_02.jpg,0,1717
8,77,777,filler,Key.wav,"NA",Key_01.jpg_Green Bean_01.jpg,1,1273
8,78,778,filler,Noodles.wav,"NA",Noodles_01.jpg_Popsicle_02.jpg,1,1813
8,79,779,test,nono.wav,round,RSlide27.jpg_Eshape.jpg,1,858
8,80,780,filler,Shirt.wav,"NA",Shirt_01.jpg_Tv_01.jpg,0,1152
8,81,781,filler,Yogurt.wav,"NA",Yogurt_01.jpg_Camera_01.jpg,1,985
8,82,782,filler,Grapes.wav,"NA",Grapes_02.jpg_Squirrel_01.jpg,1,1181
8,83,783,filler,Pineapple.wav,"NA",Pineapple_02.jpg_Juice_01.jpg,1,1201
8,84,784,filler,Watermelon.wav,"NA",Watermelon_02.jpg_Vitamin_02.jpg,1,1409
8,85,785,filler,Foot.wav,"NA",Foot_02.jpg_Bird_02.jpg,1,1694
8,86,786,filler,Pillow.wav,"NA",Pillow_02.jpg_Orangutan_02.jpg,1,1697
8,87,787,filler,Potato.wav,"NA",Potato_01.jpg_Stethoscope_02.jpg,1,926
8,88,788,test,sisi.wav,edgy,ESlide34.jpg_Rshape5.jpg,0,885
8,89,789,filler,Snake.wav,"NA",Snake_01.jpg_Melon_02.jpg,1,1457
8,90,790,filler,Swelling.wav,"NA",Swelling_02.jpg_Sugar Cane_01.jpg,1,929
8,91,791,filler,Vitamin.wav,"NA",Vitamin_02.jpg_Bowl_02.jpg,0,1128
8,92,792,filler,Blackberries.wav,"NA",Blackberries_02.jpg_Bread_02.jpg,1,1097
8,93,793,filler,Peas.wav,"NA",Peas_01.jpg_Tomato_02.jpg,1,1606
8,94,794,filler,Bubbles.wav,"NA",Bubbles_01.jpg_Brush_02.jpg,0,1213
8,95,795,filler,Trash.wav,"NA",Trash_01.jpg_Wipies_02.jpg,0,1665
8,96,796,filler,Dog.wav,"NA",Dog_02.jpg_Groom_01.jpg,1,1117
8,97,797,filler,Shoe.wav,"NA",Shoe_01.jpg_Straw_01.jpg,1,1469
8,98,798,filler,Pinecone.wav,"NA",Pinecone_01.jpg_Straw_02.jpg,1,1080
8,99,799,test,fefe.wav,edgy,ESlide46.jpg_RSlide33.jpg,1,885
8,100,800,filler,Pear.wav,"NA",Pear_02.jpg_Raisin_01.jpg,1,1360
8,101,801,filler,Oil.wav,"NA",Oil_01.jpg_Blackberries_02.jpg,1,1646
9,2,802,filler,Strawberries.wav,"NA",Strawberries_01.jpg_Nyota_02.jpg,1,1607
9,3,803,filler,Toothbrush.wav,"NA",Toothbrush_01.jpg_Cereal_01.jpg,1,1443
9,4,804,test,nono.wav,round,RSlide27.jpg_Eshape3.jpg,0,1145
9,5,805,filler,Cherries.wav,"NA",Cherries_02.jpg_Blueberry_01.jpg,1,1519
9,6,806,filler,Fridge.wav,"NA",Fridge_01.jpg_Stick_02.jpg,0,1562
9,7,807,filler,Phone.wav,"NA",Phone_02.jpg_Pillow_02.jpg,1,1977
9,8,808,filler,Turtle.wav,"NA",Turtle_02.jpg_Bubbles_02.jpg,1,1585
9,9,809,filler,Balloon.wav,"NA",Balloon_01.jpg_Hand_02.jpg,1,1170
9,10,810,filler,Bowl.wav,"NA",Bowl_02.jpg_Cooler_01.jpg,1,1341
9,11,811,filler,Peas.wav,"NA",Peas_02.jpg_Grapes_01.jpg,1,987
9,12,812,filler,Matata.wav,"NA",Matata_01.jpg_Onion_02.jpg,1,1178
9,13,813,filler,Peaches.wav,"NA",Peaches_01.jpg_Hand_01.jpg,1,941
9,14,814,filler,Bread.wav,"NA",Bread_02.jpg_Stethoscope_01.jpg,1,1039
9,15,815,filler,Tomato.wav,"NA",Tomato_02.jpg_Pineapple_02.jpg,1,1306
9,16,816,filler,Hat.wav,"NA",Hat_02.jpg_Lettuce_02.jpg,1,1325
9,17,817,test,lolo.wav,round,RSlide21.jpg_ESlide18.jpg,1,1182
9,18,818,filler,Hat.wav,"NA",Hat_01.jpg_Strawberries_02.jpg,0,1923
9,19,819,filler,Potato.wav,"NA",Potato_02.jpg_Matata_01.jpg,1,1128
9,20,820,filler,Popsicle.wav,"NA",Popsicle_01.jpg_Snake_02.jpg,1,979
9,21,821,filler,Watermelon.wav,"NA",Watermelon_01.jpg_Squirrel_02.jpg,0,1383
9,22,822,filler,Bread.wav,"NA",Bread_01.jpg_Cheese_01.jpg,1,2294
9,23,823,filler,Squirrel.wav,"NA",Squirrel_02.jpg_Phone_02.jpg,1,1083
9,24,824,filler,Snake.wav,"NA",Snake_02.jpg_Milk_02.jpg,1,1518
9,25,825,filler,Juice.wav,"NA",Juice_02.jpg_Backpack_01.jpg,1,1232
9,26,826,filler,Cheese.wav,"NA",Cheese_02.jpg_Banana_02.jpg,1,1177
9,27,827,test,mumu.wav,round,RSlide17.jpg_ESlide22.jpg,0,818
9,28,828,filler,Coconut.wav,"NA",Coconut_02.jpg_Celery_02.jpg,1,1629
9,29,829,filler,Nyota.wav,"NA",Nyota_02.jpg_Turtle_01.jpg,1,1930
9,30,830,filler,Lighter.wav,"NA",Lighter_02.jpg_Bowl_01.jpg,0,1409
9,31,831,filler,Jelly.wav,"NA",Jelly_02.jpg_Watermelon_02.jpg,1,1965
9,32,832,filler,Maisha.wav,"NA",Maisha_02.jpg_Ear_01.jpg,1,1193
9,33,833,filler,Onion.wav,"NA",Onion_02.jpg_Pineapple_01.jpg,1,1862
9,34,834,test,kiki.wav,edgy,ESlide38.jpg_RSlide9.jpg,1,1040
9,35,835,filler,Peanut.wav,"NA",Peanut_01.jpg_Vitamin_01.jpg,1,1006
9,36,836,filler,Tomato.wav,"NA",Tomato_01.jpg_Gorilla_01.jpg,0,1830
9,37,837,filler,Green Bean.wav,"NA",Green Bean_01.jpg_Wipies_01.jpg,1,869
9,38,838,filler,Vitamin.wav,"NA",Vitamin_01.jpg_Mushroom_01.jpg,0,1445
9,39,839,filler,Jelly.wav,"NA",Jelly_01.jpg_Tummy_01.jpg,1,870
9,40,840,filler,Key.wav,"NA",Key_02.jpg_Gorilla_02.jpg,1,1177
9,41,841,filler,Fire.wav,"NA",Fire_01.jpg_Noodles_02.jpg,1,1343
9,42,842,filler,Bird.wav,"NA",Bird_02.jpg_Ball_02.jpg,1,1141
9,43,843,filler,Mushroom.wav,"NA",Mushroom_01.jpg_Maisha_01.jpg,1,1170
9,44,844,filler,Coconut.wav,"NA",Coconut_01.jpg_Oil_01.jpg,0,1340
9,45,845,test,nunu.wav,round,RSlide19.jpg_Eshape.jpg,0,917
9,46,846,filler,Peanut.wav,"NA",Peanut_02.jpg_Hat_02.jpg,1,1039
9,47,847,filler,Onion.wav,"NA",Onion_01.jpg_Yogurt_01.jpg,1,1342
9,48,848,filler,Hose.wav,"NA",Hose_02.jpg_Hat_01.jpg,1,1135
9,49,849,filler,Orangutan.wav,"NA",Orangutan_01.jpg_Nyota_01.jpg,0,1714
9,50,850,filler,Backpack.wav,"NA",Backpack_02.jpg_Foot_02.jpg,1,1374
9,51,851,filler,Green Bean.wav,"NA",Green Bean_02.jpg_Shirt_01.jpg,1,919
9,52,852,filler,Pillow.wav,"NA",Pillow_01.jpg_Key_02.jpg,1,2025
9,53,853,filler,Melon.wav,"NA",Melon_02.jpg_Popsicle_01.jpg,0,2945
9,54,854,filler,Fish.wav,"NA",Fish_01.jpg_Rock_02.jpg,1,1177
9,55,855,filler,Rock.wav,"NA",Rock_01.jpg_Fridge_01.jpg,1,1389
9,56,856,filler,Cooler.wav,"NA",Cooler_01.jpg_Melon_01.jpg,1,1661
9,57,857,test,gogo.wav,round,RSlide2.jpg_ESlide8.jpg,1,911
9,58,858,filler,Straw.wav,"NA",Straw_02.jpg_Bug_02.jpg,1,1682
9,59,859,filler,Raisin.wav,"NA",Raisin_02.jpg_Car_02.jpg,1,834
9,60,860,filler,Orange.wav,"NA",Orange_01.jpg_Peanut_02.jpg,1,1307
9,61,861,filler,Sweet Potato.wav,"NA",Sweet Potato_02.jpg_Camera_02.jpg,1,1158
9,62,862,filler,Egg.wav,"NA",Egg_01.jpg_Elikya_01.jpg,1,1276
9,63,863,filler,Toothbrush.wav,"NA",Toothbrush_02.jpg_Trash_02.jpg,1,1268
9,64,864,filler,Wipies.wav,"NA",Wipies_01.jpg_Brush_01.jpg,1,1648
9,65,865,filler,Bug.wav,"NA",Bug_01.jpg_Sugar Cane_02.jpg,1,1460
9,66,866,filler,Stick.wav,"NA",Stick_01.jpg_Hose_02.jpg,1,1702
9,67,867,filler,Brush.wav,"NA",Brush_01.jpg_Milk_01.jpg,1,1089
9,68,868,test,fefe.wav,edgy,ESlide46.jpg_RSlide37.jpg,0,829
9,69,869,filler,Melon.wav,"NA",Melon_01.jpg_Shoe_01.jpg,0,1787
9,70,870,filler,Maisha.wav,"NA",Maisha_01.jpg_Strawberries_01.jpg,1,1085
9,71,871,filler,Lettuce.wav,"NA",Lettuce_02.jpg_Orange_02.jpg,1,1603
9,72,872,filler,Nyota.wav,"NA",Nyota_01.jpg_Teco_02.jpg,0,1144
9,73,873,filler,Stick.wav,"NA",Stick_02.jpg_Balloon_02.jpg,1,1209
9,74,874,filler,Baby.wav,"NA",Baby_01.jpg_Turtle_02.jpg,1,1226
9,75,875,filler,Gorilla.wav,"NA",Gorilla_01.jpg_Lemon_02.jpg,1,1093
9,76,876,filler,Kanzi.wav,"NA",Kanzi_01.jpg_Tea_02.jpg,1,1112
9,77,877,filler,Groom.wav,"NA",Groom_02.jpg_Peanut_01.jpg,1,1001
9,78,878,filler,Brush.wav,"NA",Brush_02.jpg_Potato_02.jpg,1,887
9,79,879,test,pipi.wav,edgy,ESlide6.jpg_RSlide26.jpg,0,1183
9,80,880,filler,Apple.wav,"NA",Apple_02.jpg_Tv_02.jpg,0,1304
9,81,881,filler,Shirt.wav,"NA",Shirt_02.jpg_Water_01.jpg,1,976
9,82,882,filler,Tea.wav,"NA",Tea_02.jpg_Jelly_01.jpg,1,1586
9,83,883,filler,Knife.wav,"NA",Knife_01.jpg_Fridge_02.jpg,1,1194
9,84,884,filler,String.wav,"NA",String_01.jpg_Peaches_01.jpg,1,1028
9,85,885,filler,Bunny.wav,"NA",Bunny_02.jpg_Bread_01.jpg,0,1984
9,86,886,filler,Baby.wav,"NA",Baby_02.jpg_Dog_01.jpg,1,1682
9,87,887,filler,Grapes.wav,"NA",Grapes_01.jpg_Pinecone_01.jpg,1,861
9,88,888,filler,Foot.wav,"NA",Foot_01.jpg_Sweet Potato_01.jpg,1,2002
9,89,889,filler,Camera.wav,"NA",Camera_02.jpg_Grapes_02.jpg,1,1805
9,90,890,test,sisi.wav,edgy,ESlide34.jpg_RSlide33.jpg,1,866
9,91,891,filler,Kanzi.wav,"NA",Kanzi_02.jpg_Hand_01.jpg,0,1244
9,92,892,filler,Straw.wav,"NA",Straw_02.jpg_String_02.jpg,1,1654
9,93,893,filler,Straw.wav,"NA",Straw_01.jpg_Tummy_02.jpg,1,1644
9,94,894,filler,Brush.wav,"NA",Brush_01.jpg_Peas_01.jpg,1,1272
9,95,895,filler,Baby.wav,"NA",Baby_02.jpg_Pinecone_01.jpg,1,1421
9,96,896,test,sese.wav,edgy,Eshape4.jpg_Rshape5.jpg,0,828
9,97,897,filler,Stethoscope.wav,"NA",Stethoscope_02.jpg_Watermelon_01.jpg,1,1230
9,98,898,filler,Ball.wav,"NA",Ball_02.jpg_Lighter_01.jpg,0,1932
9,99,899,filler,Bubbles.wav,"NA",Bubbles_01.jpg_Ice_01.jpg,1,1209
9,100,900,filler,Wipies.wav,"NA",Wipies_01.jpg_Carrot_01.jpg,1,1385
9,101,901,filler,Swelling.wav,"NA",Swelling_02.jpg_Bread_01.jpg,1,1867
10,2,902,filler,Turtle.wav,"NA",Turtle_01.jpg_Sugar Cane_01.jpg,1,1448
10,3,903,filler,Yogurt.wav,"NA",Yogurt_02.jpg_Car_02.jpg,1,1426
10,4,904,filler,Ice.wav,"NA",Ice_01.jpg_Snake_02.jpg,1,2304
10,5,905,filler,Lettuce.wav,"NA",Lettuce_01.jpg_Foot_01.jpg,0,1560
10,6,906,filler,Mushroom.wav,"NA",Mushroom_01.jpg_Ear_01.jpg,1,1130
10,7,907,filler,Blackberries.wav,"NA",Blackberries_02.jpg_Noodles_01.jpg,1,2184
10,8,908,filler,Backpack.wav,"NA",Backpack_01.jpg_Sweet Potato_02.jpg,1,1185
10,9,909,filler,Balloon.wav,"NA",Balloon_01.jpg_Ice_02.jpg,1,1831
10,10,910,test,zizi.wav,edgy,ESlide8.jpg_RSlide33.jpg,0,1492
10,11,911,filler,Coconut.wav,"NA",Coconut_02.jpg_Bowl_01.jpg,1,1106
10,12,912,filler,Coconut.wav,"NA",Coconut_01.jpg_Cherries_01.jpg,1,1078
10,13,913,filler,Noodles.wav,"NA",Noodles_02.jpg_Swelling_02.jpg,1,1149
10,14,914,filler,Ear.wav,"NA",Ear_01.jpg_Lighter_02.jpg,1,1563
10,15,915,filler,Tea.wav,"NA",Tea_02.jpg_Teco_02.jpg,0,2277
10,16,916,test,fifi.wav,edgy,ESlide6.jpg_RSlide27.jpg,1,996
10,17,917,filler,Orange.wav,"NA",Orange_01.jpg_Yogurt_01.jpg,0,1391
10,18,918,filler,Tummy.wav,"NA",Tummy_01.jpg_Hat_01.jpg,1,1345
10,19,919,filler,Toothbrush.wav,"NA",Toothbrush_02.jpg_Shirt_02.jpg,0,1128
10,20,920,filler,Kanzi.wav,"NA",Kanzi_01.jpg_Popsicle_01.jpg,1,1204
10,21,921,filler,Ball.wav,"NA",Ball_01.jpg_Shoe_02.jpg,1,1040
10,22,922,filler,String.wav,"NA",String_02.jpg_Apricot_02.jpg,1,968
10,23,923,filler,Water.wav,"NA",Water_01.jpg_Maisha_01.jpg,0,1358
10,24,924,filler,Sugar Cane.wav,"NA",Sugar Cane_02.jpg_Groom_01.jpg,1,1060
10,25,925,filler,Bird.wav,"NA",Bird_02.jpg_Bug_02.jpg,1,1566
10,26,926,test,keke.wav,edgy,ESlide18.jpg_RSlide9.jpg,0,2233
10,27,927,filler,Grapes.wav,"NA",Grapes_01.jpg_Sweet Potato_01.jpg,1,876
10,28,928,filler,Pillow.wav,"NA",Pillow_02.jpg_Celery_01.jpg,1,1287
10,29,929,filler,Celery.wav,"NA",Celery_02.jpg_Nyota_01.jpg,1,1594
10,30,930,filler,Fridge.wav,"NA",Fridge_02.jpg_Stethoscope_01.jpg,1,1747
10,31,931,filler,String.wav,"NA",String_01.jpg_Popsicle_02.jpg,1,1023
10,32,932,filler,Mushroom.wav,"NA",Mushroom_02.jpg_Egg_01.jpg,1,943
10,33,933,test,lulu.wav,round,RSlide37.jpg_Eshape4.jpg,0,741
10,34,934,filler,Groom.wav,"NA",Groom_02.jpg_Potato_01.jpg,1,1127
10,35,935,filler,Bowl.wav,"NA",Bowl_02.jpg_Grapes_02.jpg,1,1309
10,36,936,filler,Backpack.wav,"NA",Backpack_02.jpg_Fish_02.jpg,1,1094
10,37,937,filler,Celery.wav,"NA",Celery_01.jpg_Raisin_01.jpg,1,2151
10,38,938,filler,Green Bean.wav,"NA",Green Bean_01.jpg_Blackberries_02.jpg,1,1695
10,39,939,filler,Wipies.wav,"NA",Wipies_02.jpg_Trash_01.jpg,1,1046
10,40,940,filler,Car.wav,"NA",Car_02.jpg_Stick_02.jpg,0,1357
10,41,941,filler,Hose.wav,"NA",Hose_02.jpg_Foot_02.jpg,1,1231
10,42,942,filler,Watermelon.wav,"NA",Watermelon_01.jpg_Camera_02.jpg,0,2089
10,43,943,filler,Shoe.wav,"NA",Shoe_01.jpg_Blueberry_02.jpg,1,1054
10,44,944,filler,Squirrel.wav,"NA",Squirrel_02.jpg_Nyota_02.jpg,1,1244
10,45,945,filler,Orange.wav,"NA",Orange_02.jpg_Jelly_02.jpg,0,1983
10,46,946,filler,Hat.wav,"NA",Hat_01.jpg_Banana_02.jpg,1,1251
10,47,947,filler,Raisin.wav,"NA",Raisin_01.jpg_Yogurt_02.jpg,1,957
10,48,948,test,zeze.wav,edgy,Eshape3.jpg_Rshape5.jpg,1,1056
10,49,949,filler,Bug.wav,"NA",Bug_02.jpg_Grapes_01.jpg,1,1056
10,50,950,filler,Vitamin.wav,"NA",Vitamin_01.jpg_Juice_01.jpg,1,1793
10,51,951,filler,Phone.wav,"NA",Phone_01.jpg_Water_02.jpg,1,1118
10,52,952,filler,Sweet Potato.wav,"NA",Sweet Potato_01.jpg_Swelling_01.jpg,1,1497
10,53,953,filler,Cheese.wav,"NA",Cheese_01.jpg_Watermelon_02.jpg,1,1692
10,54,954,filler,Lemon.wav,"NA",Lemon_01.jpg_Bunny_02.jpg,0,1906
10,55,955,test,dodo.wav,round,RSlide17.jpg_ESlide22.jpg,1,1252
10,56,956,filler,Stick.wav,"NA",Stick_02.jpg_Squirrel_02.jpg,1,1032
10,57,957,filler,Fire.wav,"NA",Fire_02.jpg_Turtle_01.jpg,1,1126
10,58,958,filler,Toothbrush.wav,"NA",Toothbrush_01.jpg_Tea_02.jpg,1,1924
10,59,959,filler,Snake.wav,"NA",Snake_02.jpg_Green Bean_02.jpg,1,965
10,60,960,filler,Egg.wav,"NA",Egg_02.jpg_Onion_02.jpg,1,1246
10,61,961,filler,Yogurt.wav,"NA",Yogurt_01.jpg_Elikya_01.jpg,1,894
10,62,962,filler,Onion.wav,"NA",Onion_01.jpg_Orangutan_02.jpg,0,1313
10,63,963,filler,Key.wav,"NA",Key_01.jpg_Lemon_01.jpg,1,1301
10,64,964,filler,Melon.wav,"NA",Melon_01.jpg_Apple_02.jpg,1,2320
10,65,965,filler,Peaches.wav,"NA",Peaches_02.jpg_Shoe_01.jpg,1,991
10,66,966,filler,Blanket.wav,"NA",Blanket_01.jpg_Wipies_01.jpg,1,1111
10,67,967,filler,Blanket.wav,"NA",Blanket_02.jpg_Milk_01.jpg,1,907
10,68,968,test,momo.wav,round,RSlide2.jpg_ESlide46.jpg,1,860
10,69,969,filler,Banana.wav,"NA",Banana_01.jpg_Fridge_01.jpg,1,926
10,70,970,filler,Blueberry.wav,"NA",Blueberry_01.jpg_Orange_01.jpg,1,1127
10,71,971,filler,Tummy.wav,"NA",Tummy_02.jpg_Orange_02.jpg,1,1455
10,72,972,filler,Lemon.wav,"NA",Lemon_02.jpg_Maisha_02.jpg,1,2709
10,73,973,filler,Snake.wav,"NA",Snake_01.jpg_Fridge_02.jpg,1,914
10,74,974,filler,Sugar Cane.wav,"NA",Sugar Cane_01.jpg_Brush_01.jpg,1,1279
10,75,975,filler,Bread.wav,"NA",Bread_01.jpg_Strawberries_01.jpg,0,804
10,76,976,filler,Elikya.wav,"NA",Elikya_02.jpg_Lettuce_01.jpg,1,964
10,77,977,test,dudu.wav,round,RSlide21.jpg_Eshape.jpg,1,992
10,78,978,filler,Cooler.wav,"NA",Cooler_02.jpg_Tomato_02.jpg,1,1033
10,79,979,filler,Carrot.wav,"NA",Carrot_01.jpg_Snake_01.jpg,0,2139
10,80,980,filler,Teco.wav,"NA",Teco_02.jpg_Peaches_02.jpg,1,954
10,81,981,filler,Hat.wav,"NA",Hat_02.jpg_Matata_01.jpg,0,967
10,82,982,filler,Bunny.wav,"NA",Bunny_01.jpg_Knife_01.jpg,1,1062
10,83,983,test,gugu.wav,round,RSlide26.jpg_ESlide38.jpg,1,775
10,84,984,filler,Shirt.wav,"NA",Shirt_01.jpg_Cherries_02.jpg,1,1236
10,85,985,filler,Strawberries.wav,"NA",Strawberries_02.jpg_Balloon_01.jpg,1,1538
10,86,986,filler,Cereal.wav,"NA",Cereal_01.jpg_Mushroom_01.jpg,1,1308
10,87,987,filler,Pineapple.wav,"NA",Pineapple_02.jpg_Tummy_01.jpg,1,1066
10,88,988,filler,Cereal.wav,"NA",Cereal_02.jpg_Rock_02.jpg,0,1695
10,89,989,filler,Egg.wav,"NA",Egg_01.jpg_Baby_02.jpg,1,880
10,90,990,filler,Ear.wav,"NA",Ear_02.jpg_Coconut_02.jpg,1,1631
10,91,991,filler,Juice.wav,"NA",Juice_01.jpg_Baby_01.jpg,1,1203
10,92,992,filler,Banana.wav,"NA",Banana_02.jpg_Cooler_01.jpg,1,947
10,93,993,filler,Spoon.wav,"NA",Spoon_02.jpg_Hose_02.jpg,1,1087
10,94,994,filler,Water.wav,"NA",Water_02.jpg_Balloon_02.jpg,1,1495
10,95,995,filler,Tea.wav,"NA",Tea_01.jpg_Camera_01.jpg,0,1001
10,96,996,filler,Trash.wav,"NA",Trash_02.jpg_Tea_01.jpg,1,990
10,97,997,filler,Tomato.wav,"NA",Tomato_01.jpg_Tv_01.jpg,1,1775
10,98,998,test,pepe.wav,edgy,ESlide34.jpg_RSlide19.jpg,1,956
10,99,999,filler,Tomato.wav,"NA",Tomato_02.jpg_Dog_01.jpg,1,1013
10,100,1000,filler,Pinecone.wav,"NA",Pinecone_01.jpg_Tomato_01.jpg,1,1086
10,101,1001,filler,Stick.wav,"NA",Stick_01.jpg_Fish_01.jpg,1,1568
11,2,1002,filler,Maisha.wav,"NA",Maisha_01.jpg_Cheese_02.jpg,1,1472
11,3,1003,filler,Swelling.wav,"NA",Swelling_01.jpg_Gorilla_01.jpg,0,2055
11,4,1004,test,gugu.wav,round,RSlide9.jpg_ESlide8.jpg,1,794
11,5,1005,filler,Potato.wav,"NA",Potato_01.jpg_Coconut_01.jpg,1,1313
11,6,1006,filler,Tv.wav,"NA",Tv_01.jpg_Gorilla_02.jpg,1,1250
11,7,1007,filler,Maisha.wav,"NA",Maisha_02.jpg_Noodles_02.jpg,0,2058
11,8,1008,filler,Bug.wav,"NA",Bug_01.jpg_Pinecone_02.jpg,1,1343
11,9,1009,filler,Foot.wav,"NA",Foot_01.jpg_Trash_02.jpg,0,1467
11,10,1010,filler,Oil.wav,"NA",Oil_02.jpg_Hose_01.jpg,1,1176
11,11,1011,filler,Nyota.wav,"NA",Nyota_02.jpg_Tv_02.jpg,1,1709
11,12,1012,filler,Peaches.wav,"NA",Peaches_01.jpg_Potato_02.jpg,1,1223
11,13,1013,filler,Milk.wav,"NA",Milk_02.jpg_Mushroom_02.jpg,1,1504
11,14,1014,test,nono.wav,round,RSlide33.jpg_ESlide22.jpg,0,1059
11,15,1015,filler,Groom.wav,"NA",Groom_01.jpg_Strawberries_02.jpg,1,1261
11,16,1016,filler,Teco.wav,"NA",Teco_01.jpg_Backpack_02.jpg,1,1387
11,17,1017,filler,Peanut.wav,"NA",Peanut_01.jpg_Pillow_01.jpg,1,735
11,18,1018,filler,Bird.wav,"NA",Bird_01.jpg_Oil_01.jpg,0,1752
11,19,1019,filler,Balloon.wav,"NA",Balloon_02.jpg_Mouth_02.jpg,1,1010
11,20,1020,filler,Cheese.wav,"NA",Cheese_02.jpg_Toothbrush_01.jpg,1,1325
11,21,1021,filler,Bubbles.wav,"NA",Bubbles_02.jpg_Lettuce_02.jpg,1,1634
11,22,1022,filler,Noodles.wav,"NA",Noodles_01.jpg_Green Bean_01.jpg,1,1860
11,23,1023,filler,Bread.wav,"NA",Bread_02.jpg_Banana_01.jpg,1,1095
11,24,1024,filler,Knife.wav,"NA",Knife_01.jpg_Vitamin_02.jpg,1,1142
11,25,1025,test,sese.wav,edgy,ESlide34.jpg_RSlide26.jpg,1,1006
11,26,1026,filler,Grapes.wav,"NA",Grapes_02.jpg_Cereal_02.jpg,1,1106
11,27,1027,filler,Oil.wav,"NA",Oil_01.jpg_Elikya_02.jpg,0,1425
11,28,1028,filler,Pillow.wav,"NA",Pillow_01.jpg_Shirt_01.jpg,0,1380
11,29,1029,filler,Camera.wav,"NA",Camera_01.jpg_Spoon_01.jpg,0,939
11,30,1030,filler,Peanut.wav,"NA",Peanut_02.jpg_Bird_02.jpg,1,1014
11,31,1031,filler,Popsicle.wav,"NA",Popsicle_02.jpg_Bubbles_01.jpg,1,836
11,32,1032,filler,Nyota.wav,"NA",Nyota_01.jpg_Rock_01.jpg,1,1142
11,33,1033,filler,Brush.wav,"NA",Brush_02.jpg_Stick_01.jpg,0,954
11,34,1034,filler,Gorilla.wav,"NA",Gorilla_02.jpg_Matata_02.jpg,1,1350
11,35,1035,filler,Apricot.wav,"NA",Apricot_01.jpg_String_01.jpg,0,2051
11,36,1036,filler,Spoon.wav,"NA",Spoon_01.jpg_Lemon_02.jpg,1,1020
11,37,1037,test,zizi.wav,edgy,Eshape4.jpg_RSlide37.jpg,1,1177
11,38,1038,filler,Turtle.wav,"NA",Turtle_02.jpg_Peanut_01.jpg,1,1194
11,39,1039,filler,Hose.wav,"NA",Hose_01.jpg_Bubbles_02.jpg,1,2158
11,40,1040,filler,Fish.wav,"NA",Fish_02.jpg_Pineapple_02.jpg,1,1755
11,41,1041,filler,Pear.wav,"NA",Pear_02.jpg_Raisin_02.jpg,1,937
11,42,1042,filler,Fridge.wav,"NA",Fridge_01.jpg_Bunny_01.jpg,1,1309
11,43,1043,test,pipi.wav,edgy,Eshape.jpg_Rshape5.jpg,1,1326
11,44,1044,filler,Gorilla.wav,"NA",Gorilla_01.jpg_Sugar Cane_02.jpg,1,1090
11,45,1045,filler,Potato.wav,"NA",Potato_02.jpg_Onion_01.jpg,1,1249
11,46,1046,filler,Knife.wav,"NA",Knife_02.jpg_Straw_01.jpg,1,1344
11,47,1047,filler,Fire.wav,"NA",Fire_01.jpg_Bird_01.jpg,1,1051
11,48,1048,filler,Milk.wav,"NA",Milk_01.jpg_Blanket_01.jpg,0,2321
11,49,1049,filler,Rock.wav,"NA",Rock_01.jpg_Oil_02.jpg,1,1603
11,50,1050,filler,Lettuce.wav,"NA",Lettuce_02.jpg_Dog_02.jpg,0,1677
11,51,1051,filler,Pear.wav,"NA",Pear_01.jpg_Key_02.jpg,1,2121
11,52,1052,filler,Dog.wav,"NA",Dog_02.jpg_Wipies_02.jpg,0,1632
11,53,1053,filler,Shirt.wav,"NA",Shirt_02.jpg_Jelly_01.jpg,1,1298
11,54,1054,filler,Mouth.wav,"NA",Mouth_02.jpg_Ear_02.jpg,1,1502
11,55,1055,test,pepe.wav,edgy,ESlide6.jpg_RSlide17.jpg,0,827
11,56,1056,filler,Ice.wav,"NA",Ice_02.jpg_Apricot_01.jpg,1,1508
11,57,1057,filler,Lighter.wav,"NA",Lighter_02.jpg_Spoon_02.jpg,0,1231
11,58,1058,filler,Elikya.wav,"NA",Elikya_01.jpg_Bug_01.jpg,1,1021
11,59,1059,filler,Apple.wav,"NA",Apple_01.jpg_Blackberries_01.jpg,0,1020
11,60,1060,filler,Squirrel.wav,"NA",Squirrel_01.jpg_Melon_02.jpg,1,1216
11,61,1061,filler,Pinecone.wav,"NA",Pinecone_02.jpg_Stethoscope_02.jpg,0,1363
11,62,1062,filler,Cherries.wav,"NA",Cherries_02.jpg_Milk_02.jpg,1,1117
11,63,1063,filler,Peas.wav,"NA",Peas_01.jpg_Brush_02.jpg,1,2506
11,64,1064,filler,Stethoscope.wav,"NA",Stethoscope_01.jpg_Phone_02.jpg,0,2047
11,65,1065,filler,Car.wav,"NA",Car_01.jpg_Blanket_02.jpg,0,1691
11,66,1066,filler,Juice.wav,"NA",Juice_02.jpg_Peas_02.jpg,1,1168
11,67,1067,filler,Mouth.wav,"NA",Mouth_01.jpg_Groom_02.jpg,1,2256
11,68,1068,filler,Raisin.wav,"NA",Raisin_02.jpg_Phone_01.jpg,1,1004
11,69,1069,test,lolo.wav,round,RSlide19.jpg_Eshape3.jpg,0,1018
11,70,1070,filler,Peas.wav,"NA",Peas_02.jpg_Carrot_02.jpg,1,1494
11,71,1071,filler,Foot.wav,"NA",Foot_02.jpg_Blueberry_01.jpg,1,1609
11,72,1072,filler,Vitamin.wav,"NA",Vitamin_02.jpg_Cooler_02.jpg,0,1296
11,73,1073,filler,Jelly.wav,"NA",Jelly_01.jpg_Celery_02.jpg,1,1447
11,74,1074,filler,Strawberries.wav,"NA",Strawberries_01.jpg_Fire_02.jpg,1,2217
11,75,1075,filler,Carrot.wav,"NA",Carrot_02.jpg_Pear_01.jpg,1,1821
11,76,1076,filler,Watermelon.wav,"NA",Watermelon_02.jpg_Vitamin_01.jpg,0,2017
11,77,1077,test,sisi.wav,edgy,ESlide38.jpg_RSlide21.jpg,1,827
11,78,1078,filler,Matata.wav,"NA",Matata_02.jpg_Peaches_01.jpg,1,1349
11,79,1079,filler,Blackberries.wav,"NA",Blackberries_01.jpg_Ball_01.jpg,1,1602
11,80,1080,filler,Cherries.wav,"NA",Cherries_01.jpg_Backpack_01.jpg,1,1546
11,81,1081,filler,Popsicle.wav,"NA",Popsicle_01.jpg_Orangutan_01.jpg,1,1173
11,82,1082,filler,Jelly.wav,"NA",Jelly_02.jpg_Car_01.jpg,1,1335
11,83,1083,filler,Blueberry.wav,"NA",Blueberry_02.jpg_Pear_02.jpg,1,1856
11,84,1084,filler,Shoe.wav,"NA",Shoe_02.jpg_Cereal_01.jpg,1,1231
11,85,1085,filler,Bowl.wav,"NA",Bowl_01.jpg_Turtle_02.jpg,1,1586
11,86,1086,filler,Key.wav,"NA",Key_02.jpg_Squirrel_01.jpg,1,1248
11,87,1087,filler,Hand.wav,"NA",Hand_02.jpg_Toothbrush_02.jpg,0,2061
11,88,1088,filler,Trash.wav,"NA",Trash_01.jpg_Pineapple_01.jpg,1,1417
11,89,1089,filler,Bunny.wav,"NA",Bunny_02.jpg_Fire_01.jpg,0,1768
11,90,1090,test,gogo.wav,round,RSlide2.jpg_ESlide18.jpg,1,834
11,91,1091,filler,Matata.wav,"NA",Matata_01.jpg_Pillow_02.jpg,1,1343
11,92,1092,filler,Cooler.wav,"NA",Cooler_01.jpg_Ball_02.jpg,1,1079
11,93,1093,filler,Hand.wav,"NA",Hand_01.jpg_Egg_02.jpg,1,1756
11,94,1094,filler,Fish.wav,"NA",Fish_01.jpg_Knife_02.jpg,1,1240
11,95,1095,filler,Apricot.wav,"NA",Apricot_02.jpg_Juice_02.jpg,1,1242
11,96,1096,filler,Tv.wav,"NA",Tv_02.jpg_Hat_02.jpg,1,975
11,97,1097,filler,Pineapple.wav,"NA",Pineapple_01.jpg_Melon_01.jpg,1,1759
11,98,1098,filler,Orangutan.wav,"NA",Orangutan_01.jpg_Kanzi_02.jpg,1,1669
11,99,1099,test,nunu.wav,round,RSlide27.jpg_ESlide46.jpg,1,946
11,100,1100,filler,Sweet Potato.wav,"NA",Sweet Potato_02.jpg_Bowl_02.jpg,1,1393
11,101,1101,filler,Camera.wav,"NA",Camera_02.jpg_Bread_02.jpg,1,1919
12,2,1102,filler,Green Bean.wav,"NA",Green Bean_02.jpg_Kanzi_01.jpg,1,994
12,3,1103,filler,Lighter.wav,"NA",Lighter_01.jpg_Mouth_01.jpg,0,4150
12,4,1104,filler,Rock.wav,"NA",Rock_02.jpg_Apple_01.jpg,1,1444
12,5,1105,test,zeze.wav,edgy,Eshape3.jpg_RSlide9.jpg,1,1063
12,6,1106,filler,Apple.wav,"NA",Apple_02.jpg_Teco_01.jpg,1,1686
12,7,1107,filler,Dog.wav,"NA",Dog_01.jpg_Straw_02.jpg,1,1786
12,8,1108,filler,Melon.wav,"NA",Melon_02.jpg_Key_01.jpg,0,1397
12,9,1109,filler,Phone.wav,"NA",Phone_02.jpg_Cheese_01.jpg,1,1071
12,10,1110,filler,Onion.wav,"NA",Onion_02.jpg_Hand_02.jpg,1,1172
12,11,1111,filler,Orangutan.wav,"NA",Orangutan_02.jpg_Water_01.jpg,1,1243
12,12,1112,filler,Baby.wav,"NA",Baby_01.jpg_Peanut_02.jpg,1,1620
12,13,1113,filler,Bug.wav,"NA",Bug_01.jpg_Bunny_01.jpg,0,1426
12,14,1114,filler,Grapes.wav,"NA",Grapes_01.jpg_Backpack_02.jpg,1,893
12,15,1115,filler,Coconut.wav,"NA",Coconut_02.jpg_Cheese_02.jpg,1,1425
12,16,1116,test,lulu.wav,round,RSlide33.jpg_Eshape4.jpg,1,880
12,17,1117,filler,Gorilla.wav,"NA",Gorilla_01.jpg_Wipies_01.jpg,1,1565
12,18,1118,filler,Shirt.wav,"NA",Shirt_01.jpg_Ice_01.jpg,0,1077
12,19,1119,filler,Key.wav,"NA",Key_01.jpg_Toothbrush_01.jpg,1,1317
12,20,1120,filler,Mushroom.wav,"NA",Mushroom_02.jpg_Foot_02.jpg,1,1167
12,21,1121,filler,Vitamin.wav,"NA",Vitamin_02.jpg_Cereal_01.jpg,1,1351
12,22,1122,filler,Yogurt.wav,"NA",Yogurt_02.jpg_Juice_01.jpg,1,1361
12,23,1123,filler,Oil.wav,"NA",Oil_01.jpg_Brush_01.jpg,0,1387
12,24,1124,filler,Celery.wav,"NA",Celery_02.jpg_Strawberries_02.jpg,1,1100
12,25,1125,filler,Trash.wav,"NA",Trash_02.jpg_Nyota_01.jpg,0,2444
12,26,1126,filler,Hat.wav,"NA",Hat_01.jpg_Balloon_02.jpg,1,1106
12,27,1127,filler,Tomato.wav,"NA",Tomato_01.jpg_Ear_01.jpg,1,927
12,28,1128,test,mumu.wav,round,RSlide37.jpg_ESlide38.jpg,0,859
12,29,1129,filler,Bubbles.wav,"NA",Bubbles_02.jpg_Fire_01.jpg,1,1977
12,30,1130,filler,Bird.wav,"NA",Bird_01.jpg_Cereal_02.jpg,1,1317
12,31,1131,filler,String.wav,"NA",String_02.jpg_Apple_01.jpg,1,2525
12,32,1132,filler,Stick.wav,"NA",Stick_02.jpg_Balloon_01.jpg,1,1263
12,33,1133,filler,Dog.wav,"NA",Dog_02.jpg_Lighter_01.jpg,1,1165
12,34,1134,filler,Gorilla.wav,"NA",Gorilla_02.jpg_Mushroom_01.jpg,1,1110
12,35,1135,filler,Ball.wav,"NA",Ball_01.jpg_Apricot_01.jpg,1,1123
12,36,1136,test,keke.wav,edgy,Eshape.jpg_RSlide26.jpg,1,917
12,37,1137,filler,Sugar Cane.wav,"NA",Sugar Cane_01.jpg_Phone_01.jpg,1,1192
12,38,1138,filler,Maisha.wav,"NA",Maisha_01.jpg_Sugar Cane_01.jpg,0,1519
12,39,1139,filler,Celery.wav,"NA",Celery_01.jpg_Pillow_01.jpg,1,990
12,40,1140,filler,Ear.wav,"NA",Ear_01.jpg_Key_02.jpg,1,1752
12,41,1141,filler,Straw.wav,"NA",Straw_01.jpg_Noodles_02.jpg,1,1506
12,42,1142,filler,Toothbrush.wav,"NA",Toothbrush_02.jpg_Spoon_02.jpg,1,1336
12,43,1143,filler,Spoon.wav,"NA",Spoon_02.jpg_Maisha_02.jpg,1,1023
12,44,1144,filler,Pinecone.wav,"NA",Pinecone_02.jpg_Peaches_02.jpg,1,998
12,45,1145,filler,Mushroom.wav,"NA",Mushroom_01.jpg_Onion_01.jpg,1,1645
12,46,1146,test,momo.wav,round,Rshape5.jpg_ESlide6.jpg,0,962
12,47,1147,filler,Raisin.wav,"NA",Raisin_01.jpg_Stethoscope_02.jpg,1,1295
12,48,1148,filler,Juice.wav,"NA",Juice_02.jpg_Fish_01.jpg,1,1602
12,49,1149,filler,Toothbrush.wav,"NA",Toothbrush_01.jpg_Water_01.jpg,1,1422
12,50,1150,filler,Sugar Cane.wav,"NA",Sugar Cane_02.jpg_Swelling_01.jpg,1,1166
12,51,1151,filler,Matata.wav,"NA",Matata_01.jpg_Lighter_02.jpg,1,1337
12,52,1152,filler,Banana.wav,"NA",Banana_01.jpg_Rock_02.jpg,1,1071
12,53,1153,filler,Onion.wav,"NA",Onion_02.jpg_Wipies_02.jpg,1,1171
12,54,1154,filler,Onion.wav,"NA",Onion_01.jpg_Spoon_01.jpg,1,973
12,55,1155,filler,Raisin.wav,"NA",Raisin_02.jpg_Peanut_02.jpg,1,1116
12,56,1156,filler,Egg.wav,"NA",Egg_02.jpg_Onion_02.jpg,1,1439
12,57,1157,filler,Hose.wav,"NA",Hose_02.jpg_Pear_02.jpg,1,981
12,58,1158,filler,Baby.wav,"NA",Baby_01.jpg_Celery_01.jpg,1,1115
12,59,1159,filler,Fish.wav,"NA",Fish_01.jpg_Shoe_02.jpg,1,1443
12,60,1160,test,fefe.wav,edgy,ESlide18.jpg_RSlide17.jpg,0,881
12,61,1161,filler,Hat.wav,"NA",Hat_02.jpg_Pillow_02.jpg,0,1366
12,62,1162,filler,Shoe.wav,"NA",Shoe_01.jpg_Brush_02.jpg,1,1110
12,63,1163,filler,Bubbles.wav,"NA",Bubbles_01.jpg_Jelly_02.jpg,1,1126
12,64,1164,filler,Water.wav,"NA",Water_01.jpg_Melon_01.jpg,1,1297
12,65,1165,test,dodo.wav,round,RSlide19.jpg_ESlide46.jpg,0,860
12,66,1166,filler,Hand.wav,"NA",Hand_01.jpg_Stick_01.jpg,0,1541
12,67,1167,filler,Tummy.wav,"NA",Tummy_02.jpg_Pineapple_02.jpg,1,1412
12,68,1168,filler,Tv.wav,"NA",Tv_02.jpg_Key_01.jpg,1,1380
12,69,1169,filler,Straw.wav,"NA",Straw_02.jpg_Gorilla_01.jpg,1,1022
12,70,1170,filler,Groom.wav,"NA",Groom_02.jpg_Pinecone_01.jpg,1,1321
12,71,1171,filler,Pillow.wav,"NA",Pillow_01.jpg_Hat_01.jpg,0,1533
12,72,1172,filler,Trash.wav,"NA",Trash_01.jpg_Orange_01.jpg,1,1090
12,73,1173,filler,Peaches.wav,"NA",Peaches_02.jpg_Turtle_01.jpg,1,880
12,74,1174,filler,Blanket.wav,"NA",Blanket_02.jpg_Juice_02.jpg,1,1141
12,75,1175,filler,Cooler.wav,"NA",Cooler_01.jpg_Egg_01.jpg,1,1136
12,76,1176,test,kiki.wav,edgy,ESlide8.jpg_RSlide21.jpg,1,1461
12,77,1177,filler,Cooler.wav,"NA",Cooler_02.jpg_Strawberries_01.jpg,1,1573
12,78,1178,filler,Cherries.wav,"NA",Cherries_02.jpg_Mouth_02.jpg,1,925
12,79,1179,filler,Fire.wav,"NA",Fire_01.jpg_Hand_01.jpg,1,1220
12,80,1180,filler,Mouth.wav,"NA",Mouth_01.jpg_Oil_01.jpg,1,2184
12,81,1181,filler,Foot.wav,"NA",Foot_01.jpg_Apple_02.jpg,0,1163
12,82,1182,filler,Egg.wav,"NA",Egg_01.jpg_Dog_02.jpg,1,1049
12,83,1183,filler,Melon.wav,"NA",Melon_02.jpg_Matata_01.jpg,0,1971
12,84,1184,filler,Nyota.wav,"NA",Nyota_02.jpg_Snake_02.jpg,1,1065
12,85,1185,test,dudu.wav,round,RSlide27.jpg_ESlide22.jpg,1,901
12,86,1186,filler,Yogurt.wav,"NA",Yogurt_01.jpg_Blanket_02.jpg,1,1156
12,87,1187,filler,Bug.wav,"NA",Bug_02.jpg_Ball_02.jpg,1,1254
12,88,1188,filler,Car.wav,"NA",Car_01.jpg_Shirt_01.jpg,0,1440
12,89,1189,filler,Lemon.wav,"NA",Lemon_02.jpg_Snake_01.jpg,1,949
12,90,1190,filler,Pillow.wav,"NA",Pillow_02.jpg_Shirt_02.jpg,0,3711
12,91,1191,filler,Banana.wav,"NA",Banana_02.jpg_Cooler_01.jpg,1,1080
12,92,1192,filler,Balloon.wav,"NA",Balloon_02.jpg_Potato_01.jpg,1,1292
12,93,1193,filler,Kanzi.wav,"NA",Kanzi_02.jpg_Car_02.jpg,0,1380
12,94,1194,test,fifi.wav,edgy,ESlide34.jpg_RSlide2.jpg,0,901
12,95,1195,filler,Kanzi.wav,"NA",Kanzi_01.jpg_Raisin_01.jpg,1,1115
12,96,1196,filler,Bread.wav,"NA",Bread_01.jpg_Bird_01.jpg,1,1316
12,97,1197,filler,Rock.wav,"NA",Rock_01.jpg_Sugar Cane_02.jpg,1,2019
12,98,1198,filler,Camera.wav,"NA",Camera_01.jpg_Peas_01.jpg,1,1312
12,99,1199,filler,Swelling.wav,"NA",Swelling_02.jpg_Stethoscope_01.jpg,1,2120
12,100,1200,filler,Milk.wav,"NA",Milk_02.jpg_Bunny_02.jpg,1,1787
12,101,1201,filler,Wipies.wav,"NA",Wipies_02.jpg_Noodles_01.jpg,1,1200
13,2,1202,filler,Noodles.wav,"NA",Noodles_01.jpg_Hat_02.jpg,1,1049
13,3,1203,filler,Balloon.wav,"NA",Balloon_01.jpg_Green Bean_02.jpg,0,1074
13,4,1204,filler,Carrot.wav,"NA",Carrot_01.jpg_Coconut_01.jpg,1,1512
13,5,1205,filler,Phone.wav,"NA",Phone_01.jpg_Blackberries_01.jpg,1,1271
13,6,1206,filler,Tummy.wav,"NA",Tummy_01.jpg_Backpack_01.jpg,1,1196
13,7,1207,filler,Fire.wav,"NA",Fire_02.jpg_Vitamin_01.jpg,1,1269
13,8,1208,filler,Watermelon.wav,"NA",Watermelon_02.jpg_Hose_02.jpg,0,1318
13,9,1209,filler,Squirrel.wav,"NA",Squirrel_01.jpg_Ball_01.jpg,1,1262
13,10,1210,test,sisi.wav,edgy,ESlide6.jpg_RSlide19.jpg,0,994
13,11,1211,filler,Stick.wav,"NA",Stick_01.jpg_Bowl_01.jpg,1,1109
13,12,1212,filler,Peanut.wav,"NA",Peanut_02.jpg_Cherries_01.jpg,1,951
13,13,1213,filler,Brush.wav,"NA",Brush_01.jpg_Lemon_01.jpg,1,1227
13,14,1214,filler,Camera.wav,"NA",Camera_02.jpg_Orangutan_02.jpg,1,1390
13,15,1215,filler,Maisha.wav,"NA",Maisha_02.jpg_Kanzi_01.jpg,1,878
13,16,1216,filler,Orange.wav,"NA",Orange_02.jpg_Cooler_02.jpg,0,1257
13,17,1217,filler,Dog.wav,"NA",Dog_01.jpg_Sweet Potato_01.jpg,1,1424
13,18,1218,filler,Stethoscope.wav,"NA",Stethoscope_02.jpg_Bread_01.jpg,1,1797
13,19,1219,test,pipi.wav,edgy,ESlide8.jpg_RSlide26.jpg,1,1031
13,20,1220,filler,Peaches.wav,"NA",Peaches_01.jpg_Watermelon_02.jpg,1,1105
13,21,1221,filler,Pear.wav,"NA",Pear_01.jpg_Phone_02.jpg,1,1036
13,22,1222,filler,Pinecone.wav,"NA",Pinecone_01.jpg_Lettuce_02.jpg,1,1297
13,23,1223,filler,Blueberry.wav,"NA",Blueberry_02.jpg_Tummy_02.jpg,1,1261
13,24,1224,filler,Swelling.wav,"NA",Swelling_01.jpg_Coconut_02.jpg,1,1231
13,25,1225,filler,Tea.wav,"NA",Tea_01.jpg_Tomato_02.jpg,1,1545
13,26,1226,filler,Peas.wav,"NA",Peas_02.jpg_Shoe_01.jpg,1,1535
13,27,1227,filler,Car.wav,"NA",Car_02.jpg_Stick_02.jpg,1,1896
13,28,1228,filler,Bunny.wav,"NA",Bunny_01.jpg_Trash_02.jpg,1,925
13,29,1229,filler,Popsicle.wav,"NA",Popsicle_01.jpg_Teco_02.jpg,1,980
13,30,1230,test,lulu.wav,round,RSlide9.jpg_Eshape.jpg,1,1000
13,31,1231,filler,Bread.wav,"NA",Bread_02.jpg_Straw_02.jpg,1,812
13,32,1232,filler,Bowl.wav,"NA",Bowl_02.jpg_Foot_01.jpg,1,1650
13,33,1233,filler,Phone.wav,"NA",Phone_02.jpg_Baby_02.jpg,1,943
13,34,1234,filler,Blackberries.wav,"NA",Blackberries_01.jpg_Toothbrush_02.jpg,1,949
13,35,1235,filler,Sweet Potato.wav,"NA",Sweet Potato_02.jpg_Bubbles_02.jpg,1,1499
13,36,1236,filler,Pear.wav,"NA",Pear_02.jpg_Hose_01.jpg,1,1348
13,37,1237,filler,Peas.wav,"NA",Peas_01.jpg_Popsicle_02.jpg,1,1384
13,38,1238,filler,Orangutan.wav,"NA",Orangutan_01.jpg_Tv_02.jpg,1,1347
13,39,1239,test,gugu.wav,round,RSlide27.jpg_Eshape4.jpg,0,774
13,40,1240,filler,Jelly.wav,"NA",Jelly_02.jpg_Car_01.jpg,1,1689
13,41,1241,filler,Water.wav,"NA",Water_02.jpg_Bird_02.jpg,1,934
13,42,1242,filler,Apple.wav,"NA",Apple_01.jpg_Cheese_01.jpg,0,2416
13,43,1243,filler,Apricot.wav,"NA",Apricot_02.jpg_Peanut_01.jpg,1,1310
13,44,1244,filler,Ice.wav,"NA",Ice_02.jpg_Grapes_02.jpg,1,810
13,45,1245,filler,Fish.wav,"NA",Fish_02.jpg_Ice_02.jpg,1,1231
13,46,1246,test,nono.wav,round,RSlide37.jpg_ESlide46.jpg,0,801
13,47,1247,filler,Lighter.wav,"NA",Lighter_01.jpg_Egg_02.jpg,1,1623
13,48,1248,filler,Ball.wav,"NA",Ball_02.jpg_Camera_02.jpg,1,966
13,49,1249,filler,Squirrel.wav,"NA",Squirrel_02.jpg_Pineapple_01.jpg,1,1029
13,50,1250,filler,Potato.wav,"NA",Potato_01.jpg_Yogurt_01.jpg,1,1360
13,51,1251,filler,Peanut.wav,"NA",Peanut_01.jpg_Grapes_01.jpg,1,695
13,52,1252,filler,Turtle.wav,"NA",Turtle_01.jpg_Blackberries_02.jpg,1,1230
13,53,1253,filler,Tv.wav,"NA",Tv_01.jpg_Popsicle_01.jpg,1,1293
13,54,1254,filler,Blackberries.wav,"NA",Blackberries_02.jpg_Carrot_02.jpg,1,1235
13,55,1255,filler,Potato.wav,"NA",Potato_02.jpg_Bug_01.jpg,1,789
13,56,1256,filler,Cereal.wav,"NA",Cereal_02.jpg_Camera_01.jpg,1,1432
13,57,1257,filler,Shoe.wav,"NA",Shoe_02.jpg_Fire_02.jpg,1,1054
13,58,1258,filler,Wipies.wav,"NA",Wipies_01.jpg_Hand_02.jpg,1,1229
13,59,1259,test,zizi.wav,edgy,Eshape3.jpg_RSlide2.jpg,0,1215
13,60,1260,filler,Pineapple.wav,"NA",Pineapple_02.jpg_Peaches_01.jpg,0,958
13,61,1261,filler,Bowl.wav,"NA",Bowl_01.jpg_Mushroom_02.jpg,1,1549
13,62,1262,filler,Elikya.wav,"NA",Elikya_01.jpg_Knife_02.jpg,1,763
13,63,1263,filler,Coconut.wav,"NA",Coconut_01.jpg_Lemon_02.jpg,1,961
13,64,1264,filler,Knife.wav,"NA",Knife_02.jpg_Kanzi_02.jpg,1,956
13,65,1265,filler,Cheese.wav,"NA",Cheese_02.jpg_Milk_01.jpg,1,1340
13,66,1266,filler,Apple.wav,"NA",Apple_02.jpg_Squirrel_02.jpg,0,1349
13,67,1267,filler,Noodles.wav,"NA",Noodles_02.jpg_Yogurt_02.jpg,1,1566
13,68,1268,filler,Teco.wav,"NA",Teco_01.jpg_Tomato_01.jpg,1,1200
13,69,1269,test,nunu.wav,round,RSlide17.jpg_ESlide34.jpg,1,959
13,70,1270,filler,Nyota.wav,"NA",Nyota_01.jpg_Banana_02.jpg,1,1012
13,71,1271,filler,Oil.wav,"NA",Oil_02.jpg_Straw_01.jpg,1,1018
13,72,1272,filler,Sweet Potato.wav,"NA",Sweet Potato_01.jpg_Mouth_01.jpg,1,1107
13,73,1273,filler,Lemon.wav,"NA",Lemon_01.jpg_Peas_02.jpg,1,1068
13,74,1274,filler,Tomato.wav,"NA",Tomato_02.jpg_Jelly_01.jpg,1,1186
13,75,1275,filler,Knife.wav,"NA",Knife_01.jpg_Turtle_02.jpg,1,1028
13,76,1276,test,zeze.wav,edgy,ESlide38.jpg_Rshape5.jpg,1,1596
13,77,1277,filler,Matata.wav,"NA",Matata_02.jpg_Elikya_02.jpg,1,1656
13,78,1278,filler,Rock.wav,"NA",Rock_02.jpg_Tea_02.jpg,1,2012
13,79,1279,filler,Fridge.wav,"NA",Fridge_01.jpg_Blanket_01.jpg,0,1111
13,80,1280,filler,Pineapple.wav,"NA",Pineapple_01.jpg_Trash_01.jpg,1,1272
13,81,1281,filler,Vitamin.wav,"NA",Vitamin_01.jpg_Potato_02.jpg,1,1509
13,82,1282,filler,Apricot.wav,"NA",Apricot_01.jpg_Watermelon_01.jpg,0,3189
13,83,1283,filler,Cheese.wav,"NA",Cheese_01.jpg_Ear_02.jpg,1,1498
13,84,1284,filler,Jelly.wav,"NA",Jelly_01.jpg_Tummy_01.jpg,0,1180
13,85,1285,filler,Elikya.wav,"NA",Elikya_02.jpg_Blueberry_02.jpg,1,883
13,86,1286,filler,Melon.wav,"NA",Melon_01.jpg_Baby_01.jpg,1,1993
13,87,1287,filler,Spoon.wav,"NA",Spoon_01.jpg_Carrot_01.jpg,1,1213
13,88,1288,test,fifi.wav,edgy,ESlide22.jpg_RSlide21.jpg,0,889
13,89,1289,filler,Ice.wav,"NA",Ice_01.jpg_String_02.jpg,1,1037
13,90,1290,filler,Key.wav,"NA",Key_02.jpg_String_01.jpg,1,1219
13,91,1291,filler,Turtle.wav,"NA",Turtle_02.jpg_Celery_02.jpg,1,949
13,92,1292,filler,Foot.wav,"NA",Foot_02.jpg_Tea_01.jpg,1,1367
13,93,1293,test,momo.wav,round,RSlide33.jpg_ESlide18.jpg,0,872
13,94,1294,filler,Juice.wav,"NA",Juice_01.jpg_Water_02.jpg,1,992
13,95,1295,filler,Snake.wav,"NA",Snake_01.jpg_Tv_01.jpg,1,873
13,96,1296,filler,Backpack.wav,"NA",Backpack_02.jpg_Sweet Potato_02.jpg,1,1129
13,97,1297,filler,Cherries.wav,"NA",Cherries_01.jpg_Fish_02.jpg,1,1109
13,98,1298,filler,Orangutan.wav,"NA",Orangutan_02.jpg_Green Bean_01.jpg,1,1108
13,99,1299,filler,Backpack.wav,"NA",Backpack_01.jpg_Raisin_02.jpg,1,871
13,100,1300,filler,Hose.wav,"NA",Hose_01.jpg_Nyota_02.jpg,1,886
13,101,1301,filler,Fridge.wav,"NA",Fridge_02.jpg_Dog_01.jpg,1,1222
14,2,1302,filler,Lettuce.wav,"NA",Lettuce_01.jpg_Milk_02.jpg,0,1630
14,3,1303,filler,String.wav,"NA",String_01.jpg_Knife_01.jpg,1,1430
14,4,1304,filler,Brush.wav,"NA",Brush_02.jpg_Orangutan_01.jpg,1,1249
14,5,1305,filler,Strawberries.wav,"NA",Strawberries_02.jpg_Teco_01.jpg,1,1065
14,6,1306,filler,Stethoscope.wav,"NA",Stethoscope_01.jpg_Oil_02.jpg,1,1310
14,7,1307,filler,Lettuce.wav,"NA",Lettuce_02.jpg_Melon_02.jpg,1,1530
14,8,1308,filler,Blanket.wav,"NA",Blanket_01.jpg_Banana_01.jpg,1,994
14,9,1309,test,fefe.wav,edgy,ESlide6.jpg_RSlide27.jpg,1,994
14,10,1310,filler,Tea.wav,"NA",Tea_02.jpg_Pear_01.jpg,1,1005
14,11,1311,filler,Blueberry.wav,"NA",Blueberry_01.jpg_Pinecone_02.jpg,1,954
14,12,1312,filler,Milk.wav,"NA",Milk_01.jpg_Bread_02.jpg,1,1870
14,13,1313,filler,Teco.wav,"NA",Teco_02.jpg_Groom_01.jpg,0,954
14,14,1314,filler,Baby.wav,"NA",Baby_02.jpg_Cherries_02.jpg,1,1242
14,15,1315,filler,Hand.wav,"NA",Hand_02.jpg_Apricot_02.jpg,1,838
14,16,1316,filler,Groom.wav,"NA",Groom_01.jpg_Orange_02.jpg,1,1010
14,17,1317,filler,Grapes.wav,"NA",Grapes_02.jpg_Vitamin_02.jpg,1,930
14,18,1318,filler,Orange.wav,"NA",Orange_01.jpg_Fridge_02.jpg,0,1986
14,19,1319,filler,Lighter.wav,"NA",Lighter_02.jpg_Bubbles_01.jpg,0,1482
14,20,1320,test,lolo.wav,round,RSlide21.jpg_ESlide34.jpg,0,1030
14,21,1321,filler,Snake.wav,"NA",Snake_02.jpg_Squirrel_01.jpg,1,1886
14,22,1322,filler,Green Bean.wav,"NA",Green Bean_01.jpg_Groom_02.jpg,1,1178
14,23,1323,filler,Cereal.wav,"NA",Cereal_01.jpg_Fridge_01.jpg,1,981
14,24,1324,filler,Mouth.wav,"NA",Mouth_02.jpg_Rock_01.jpg,0,1410
14,25,1325,filler,Bunny.wav,"NA",Bunny_02.jpg_Maisha_01.jpg,1,1941
14,26,1326,filler,Green Bean.wav,"NA",Green Bean_02.jpg_Gorilla_02.jpg,1,1122
14,27,1327,test,sese.wav,edgy,ESlide18.jpg_RSlide9.jpg,0,822
14,28,1328,filler,Strawberries.wav,"NA",Strawberries_01.jpg_Matata_02.jpg,1,1142
14,29,1329,filler,Shirt.wav,"NA",Shirt_02.jpg_Swelling_02.jpg,1,1305
14,30,1330,filler,Ear.wav,"NA",Ear_02.jpg_Lettuce_01.jpg,0,1634
14,31,1331,filler,Watermelon.wav,"NA",Watermelon_01.jpg_Blueberry_01.jpg,1,2438
14,32,1332,filler,Carrot.wav,"NA",Carrot_02.jpg_Elikya_01.jpg,1,1258
14,33,1333,filler,Bird.wav,"NA",Bird_02.jpg_Bowl_02.jpg,0,1565
14,34,1334,filler,Popsicle.wav,"NA",Popsicle_02.jpg_Bug_02.jpg,1,1120
14,35,1335,filler,Oil.wav,"NA",Oil_02.jpg_Onion_02.jpg,0,1256
14,36,1336,filler,Cherries.wav,"NA",Cherries_01.jpg_Mouth_01.jpg,1,851
14,37,1337,test,dodo.wav,round,Rshape5.jpg_ESlide46.jpg,1,964
14,38,1338,filler,Strawberries.wav,"NA",Strawberries_01.jpg_Teco_02.jpg,1,1217
14,39,1339,filler,Grapes.wav,"NA",Grapes_01.jpg_Noodles_02.jpg,1,1495
14,40,1340,filler,Jelly.wav,"NA",Jelly_01.jpg_Pinecone_02.jpg,0,1475
14,41,1341,filler,Lettuce.wav,"NA",Lettuce_02.jpg_Hose_02.jpg,0,2112
14,42,1342,filler,Onion.wav,"NA",Onion_01.jpg_Ice_02.jpg,1,1426
14,43,1343,filler,Fridge.wav,"NA",Fridge_01.jpg_Ice_01.jpg,1,2424
14,44,1344,filler,Bread.wav,"NA",Bread_02.jpg_Pinecone_01.jpg,1,1008
14,45,1345,filler,Stick.wav,"NA",Stick_02.jpg_Peas_01.jpg,1,1608
14,46,1346,filler,Nyota.wav,"NA",Nyota_02.jpg_Potato_02.jpg,1,983
14,47,1347,filler,Knife.wav,"NA",Knife_02.jpg_Pear_02.jpg,1,1383
14,48,1348,filler,Grapes.wav,"NA",Grapes_02.jpg_Blackberries_02.jpg,1,1176
14,49,1349,filler,Spoon.wav,"NA",Spoon_01.jpg_Milk_01.jpg,1,1000
14,50,1350,test,keke.wav,edgy,Eshape.jpg_RSlide17.jpg,0,963
14,51,1351,filler,Sweet Potato.wav,"NA",Sweet Potato_02.jpg_Phone_02.jpg,1,1344
14,52,1352,filler,Milk.wav,"NA",Milk_02.jpg_Cherries_01.jpg,1,1644
14,53,1353,filler,Cooler.wav,"NA",Cooler_01.jpg_Backpack_02.jpg,1,1424
14,54,1354,filler,Teco.wav,"NA",Teco_01.jpg_Stick_02.jpg,1,983
14,55,1355,filler,Bunny.wav,"NA",Bunny_02.jpg_Pear_01.jpg,1,1039
14,56,1356,filler,Ear.wav,"NA",Ear_01.jpg_Wipies_02.jpg,1,2187
14,57,1357,filler,Toothbrush.wav,"NA",Toothbrush_01.jpg_Car_01.jpg,1,1228
14,58,1358,filler,Raisin.wav,"NA",Raisin_02.jpg_Dog_01.jpg,1,1024
14,59,1359,filler,Raisin.wav,"NA",Raisin_01.jpg_Swelling_02.jpg,1,895
14,60,1360,test,mumu.wav,round,RSlide19.jpg_ESlide8.jpg,0,1082
14,61,1361,filler,Bird.wav,"NA",Bird_01.jpg_Peaches_02.jpg,1,1376
14,62,1362,filler,Cereal.wav,"NA",Cereal_01.jpg_Ball_01.jpg,1,1040
14,63,1363,filler,Bread.wav,"NA",Bread_01.jpg_Raisin_01.jpg,1,1488
14,64,1364,test,gogo.wav,round,RSlide2.jpg_ESlide22.jpg,1,1183
14,65,1365,filler,Gorilla.wav,"NA",Gorilla_02.jpg_Apple_01.jpg,1,1300
14,66,1366,filler,Bird.wav,"NA",Bird_02.jpg_Apricot_01.jpg,1,1124
14,67,1367,filler,Teco.wav,"NA",Teco_02.jpg_Bug_01.jpg,1,1100
14,68,1368,filler,Shirt.wav,"NA",Shirt_02.jpg_Peanut_02.jpg,1,1647
14,69,1369,filler,Cherries.wav,"NA",Cherries_02.jpg_Shirt_02.jpg,1,1023
14,70,1370,filler,Phone.wav,"NA",Phone_02.jpg_Green Bean_01.jpg,1,1368
14,71,1371,filler,String.wav,"NA",String_01.jpg_Maisha_01.jpg,1,1571
14,72,1372,filler,Key.wav,"NA",Key_02.jpg_Water_01.jpg,1,1032
14,73,1373,filler,Green Bean.wav,"NA",Green Bean_01.jpg_Bug_02.jpg,1,1123
14,74,1374,filler,Foot.wav,"NA",Foot_01.jpg_Orangutan_01.jpg,0,1580
14,75,1375,filler,Watermelon.wav,"NA",Watermelon_02.jpg_Camera_02.jpg,0,1556
14,76,1376,filler,Cheese.wav,"NA",Cheese_02.jpg_Nyota_02.jpg,1,1143
14,77,1377,test,pepe.wav,edgy,Eshape3.jpg_RSlide37.jpg,0,903
14,78,1378,filler,Straw.wav,"NA",Straw_02.jpg_Watermelon_01.jpg,1,1020
14,79,1379,filler,Turtle.wav,"NA",Turtle_01.jpg_Elikya_02.jpg,0,976
14,80,1380,filler,Juice.wav,"NA",Juice_01.jpg_Watermelon_02.jpg,1,860
14,81,1381,filler,Apricot.wav,"NA",Apricot_01.jpg_Yogurt_01.jpg,0,1079
14,82,1382,filler,Dog.wav,"NA",Dog_01.jpg_Hand_01.jpg,1,1520
14,83,1383,filler,Camera.wav,"NA",Camera_02.jpg_Tomato_01.jpg,1,1420
14,84,1384,filler,Celery.wav,"NA",Celery_01.jpg_String_01.jpg,1,915
14,85,1385,filler,Balloon.wav,"NA",Balloon_01.jpg_Popsicle_02.jpg,0,1640
14,86,1386,filler,Noodles.wav,"NA",Noodles_02.jpg_Turtle_01.jpg,1,1708
14,87,1387,filler,Baby.wav,"NA",Baby_02.jpg_Popsicle_01.jpg,1,1695
14,88,1388,test,dudu.wav,round,RSlide33.jpg_Eshape4.jpg,0,1091
14,89,1389,filler,Tomato.wav,"NA",Tomato_02.jpg_Orangutan_02.jpg,1,1424
14,90,1390,filler,Kanzi.wav,"NA",Kanzi_01.jpg_Oil_01.jpg,1,1631
14,91,1391,filler,Rock.wav,"NA",Rock_01.jpg_Cooler_01.jpg,1,1291
14,92,1392,filler,Lemon.wav,"NA",Lemon_02.jpg_Maisha_02.jpg,0,2002
14,93,1393,filler,Milk.wav,"NA",Milk_01.jpg_Kanzi_01.jpg,0,1491
14,94,1394,filler,Lighter.wav,"NA",Lighter_02.jpg_Banana_02.jpg,1,1216
14,95,1395,filler,Tummy.wav,"NA",Tummy_01.jpg_Key_01.jpg,1,1007
14,96,1396,filler,Tea.wav,"NA",Tea_02.jpg_Water_02.jpg,1,1392
14,97,1397,filler,Sweet Potato.wav,"NA",Sweet Potato_01.jpg_Milk_02.jpg,1,1296
14,98,1398,filler,Snake.wav,"NA",Snake_02.jpg_Fish_01.jpg,1,988
14,99,1399,filler,Shoe.wav,"NA",Shoe_02.jpg_Lettuce_01.jpg,1,1451
14,100,1400,test,kiki.wav,edgy,ESlide38.jpg_RSlide26.jpg,1,1071
14,101,1401,filler,Foot.wav,"NA",Foot_02.jpg_Hose_01.jpg,1,1616
15,2,1402,filler,Fish.wav,"NA",Fish_01.jpg_Fridge_02.jpg,1,1518
15,3,1403,filler,Turtle.wav,"NA",Turtle_02.jpg_Green Bean_02.jpg,1,1237
15,4,1404,filler,Backpack.wav,"NA",Backpack_02.jpg_Turtle_02.jpg,1,1024
15,5,1405,filler,Peas.wav,"NA",Peas_02.jpg_Hat_02.jpg,1,1317
15,6,1406,test,pepe.wav,edgy,ESlide38.jpg_RSlide26.jpg,0,1156
15,7,1407,filler,Elikya.wav,"NA",Elikya_01.jpg_Peanut_01.jpg,1,905
15,8,1408,filler,Pear.wav,"NA",Pear_02.jpg_Wipies_01.jpg,1,1321
15,9,1409,filler,Egg.wav,"NA",Egg_01.jpg_Lighter_01.jpg,1,1001
15,10,1410,filler,Green Bean.wav,"NA",Green Bean_02.jpg_Tv_01.jpg,1,1336
15,11,1411,filler,Jelly.wav,"NA",Jelly_02.jpg_Juice_01.jpg,1,878
15,12,1412,filler,Celery.wav,"NA",Celery_02.jpg_Tea_01.jpg,1,992
15,13,1413,filler,Peaches.wav,"NA",Peaches_01.jpg_Egg_01.jpg,1,1145
15,14,1414,filler,Blueberry.wav,"NA",Blueberry_02.jpg_Melon_01.jpg,1,1097
15,15,1415,filler,Orangutan.wav,"NA",Orangutan_02.jpg_Nyota_01.jpg,0,1509
15,16,1416,filler,Lighter.wav,"NA",Lighter_01.jpg_Hat_01.jpg,1,1733
15,17,1417,test,sese.wav,edgy,ESlide8.jpg_RSlide37.jpg,1,840
15,18,1418,filler,Wipies.wav,"NA",Wipies_01.jpg_Bowl_01.jpg,1,1148
15,19,1419,filler,Hose.wav,"NA",Hose_02.jpg_Kanzi_02.jpg,1,1464
15,20,1420,filler,Shoe.wav,"NA",Shoe_01.jpg_Grapes_01.jpg,1,1149
15,21,1421,filler,Ball.wav,"NA",Ball_01.jpg_Bird_02.jpg,1,996
15,22,1422,filler,Groom.wav,"NA",Groom_01.jpg_Sugar Cane_01.jpg,1,985
15,23,1423,filler,Trash.wav,"NA",Trash_02.jpg_Stick_01.jpg,0,1365
15,24,1424,filler,Bubbles.wav,"NA",Bubbles_02.jpg_Vitamin_01.jpg,1,1141
15,25,1425,test,zeze.wav,edgy,ESlide6.jpg_RSlide17.jpg,0,1180
15,26,1426,filler,Orange.wav,"NA",Orange_01.jpg_Fire_02.jpg,0,1085
15,27,1427,filler,Banana.wav,"NA",Banana_02.jpg_Pillow_01.jpg,1,941
15,28,1428,filler,Yogurt.wav,"NA",Yogurt_01.jpg_Cooler_02.jpg,1,1529
15,29,1429,filler,Water.wav,"NA",Water_01.jpg_Gorilla_02.jpg,1,873
15,30,1430,filler,Rock.wav,"NA",Rock_02.jpg_Lemon_02.jpg,1,1709
15,31,1431,filler,Pear.wav,"NA",Pear_01.jpg_Rock_01.jpg,1,1228
15,32,1432,filler,Egg.wav,"NA",Egg_02.jpg_Snake_02.jpg,1,1380
15,33,1433,filler,Stick.wav,"NA",Stick_01.jpg_Stethoscope_01.jpg,0,2137
15,34,1434,filler,Baby.wav,"NA",Baby_01.jpg_Balloon_02.jpg,1,800
15,35,1435,filler,Orangutan.wav,"NA",Orangutan_01.jpg_Orange_01.jpg,1,1037
15,36,1436,filler,Carrot.wav,"NA",Carrot_01.jpg_Shoe_02.jpg,0,1400
15,37,1437,filler,Kanzi.wav,"NA",Kanzi_02.jpg_Trash_02.jpg,1,992
15,38,1438,test,dodo.wav,round,RSlide9.jpg_ESlide34.jpg,1,925
15,39,1439,filler,Apple.wav,"NA",Apple_01.jpg_Juice_02.jpg,0,1724
15,40,1440,filler,Fire.wav,"NA",Fire_02.jpg_Blueberry_02.jpg,1,1279
15,41,1441,filler,Onion.wav,"NA",Onion_02.jpg_Foot_01.jpg,1,816
15,42,1442,filler,Noodles.wav,"NA",Noodles_01.jpg_Trash_01.jpg,1,1256
15,43,1443,filler,Maisha.wav,"NA",Maisha_02.jpg_Lighter_02.jpg,1,1908
15,44,1444,filler,Carrot.wav,"NA",Carrot_02.jpg_Celery_01.jpg,0,1776
15,45,1445,filler,Juice.wav,"NA",Juice_02.jpg_Hand_02.jpg,1,1205
15,46,1446,test,nono.wav,round,RSlide19.jpg_ESlide18.jpg,1,1057
15,47,1447,filler,Hand.wav,"NA",Hand_02.jpg_Vitamin_02.jpg,1,1117
15,48,1448,filler,Peaches.wav,"NA",Peaches_02.jpg_Dog_02.jpg,1,1129
15,49,1449,filler,Bug.wav,"NA",Bug_01.jpg_Cheese_01.jpg,1,1484
15,50,1450,filler,Tv.wav,"NA",Tv_01.jpg_Strawberries_01.jpg,1,894
15,51,1451,filler,Bubbles.wav,"NA",Bubbles_01.jpg_Foot_02.jpg,1,1776
15,52,1452,filler,Popsicle.wav,"NA",Popsicle_01.jpg_Groom_02.jpg,1,1264
15,53,1453,filler,Fish.wav,"NA",Fish_02.jpg_Sugar Cane_02.jpg,1,1628
15,54,1454,filler,Mouth.wav,"NA",Mouth_02.jpg_Lemon_01.jpg,1,945
15,55,1455,filler,Groom.wav,"NA",Groom_02.jpg_Tummy_02.jpg,1,949
15,56,1456,filler,Mushroom.wav,"NA",Mushroom_01.jpg_Apricot_02.jpg,1,4884
15,57,1457,filler,Backpack.wav,"NA",Backpack_01.jpg_Yogurt_02.jpg,1,1028
15,58,1458,filler,Pillow.wav,"NA",Pillow_02.jpg_Baby_01.jpg,1,1204
15,59,1459,filler,Nyota.wav,"NA",Nyota_01.jpg_Matata_02.jpg,1,1728
15,60,1460,test,fifi.wav,edgy,Eshape.jpg_RSlide21.jpg,1,845
15,61,1461,filler,Ice.wav,"NA",Ice_01.jpg_Toothbrush_02.jpg,1,1446
15,62,1462,filler,Fire.wav,"NA",Fire_01.jpg_Pineapple_02.jpg,1,1396
15,63,1463,filler,Water.wav,"NA",Water_02.jpg_Carrot_02.jpg,1,1108
15,64,1464,filler,Brush.wav,"NA",Brush_02.jpg_Mouth_02.jpg,1,1401
15,65,1465,filler,Ball.wav,"NA",Ball_02.jpg_Grapes_02.jpg,1,892
15,66,1466,filler,Matata.wav,"NA",Matata_01.jpg_Toothbrush_01.jpg,1,816
15,67,1467,test,zizi.wav,edgy,Eshape4.jpg_RSlide2.jpg,1,801
15,68,1468,filler,Balloon.wav,"NA",Balloon_02.jpg_Raisin_02.jpg,1,1264
15,69,1469,filler,Pinecone.wav,"NA",Pinecone_01.jpg_Ball_02.jpg,1,1068
15,70,1470,filler,Lemon.wav,"NA",Lemon_01.jpg_Camera_01.jpg,1,1573
15,71,1471,filler,Hat.wav,"NA",Hat_01.jpg_Apple_02.jpg,1,1585
15,72,1472,filler,Blanket.wav,"NA",Blanket_02.jpg_Gorilla_01.jpg,1,868
15,73,1473,filler,Stethoscope.wav,"NA",Stethoscope_01.jpg_Onion_01.jpg,1,1221
15,74,1474,filler,Phone.wav,"NA",Phone_01.jpg_Tea_02.jpg,1,924
15,75,1475,filler,String.wav,"NA",String_02.jpg_Tomato_02.jpg,1,932
15,76,1476,filler,Tv.wav,"NA",Tv_02.jpg_String_02.jpg,1,1388
15,77,1477,filler,Mouth.wav,"NA",Mouth_01.jpg_Sweet Potato_01.jpg,1,1684
15,78,1478,filler,Squirrel.wav,"NA",Squirrel_02.jpg_Banana_01.jpg,1,1177
15,79,1479,filler,Peanut.wav,"NA",Peanut_02.jpg_Key_02.jpg,1,912
15,80,1480,test,momo.wav,round,RSlide27.jpg_Eshape3.jpg,0,1101
15,81,1481,filler,Melon.wav,"NA",Melon_01.jpg_Ear_02.jpg,1,2472
15,82,1482,filler,Snake.wav,"NA",Snake_01.jpg_Pillow_02.jpg,1,1393
15,83,1483,filler,Tea.wav,"NA",Tea_01.jpg_Blanket_02.jpg,1,1944
15,84,1484,filler,Stethoscope.wav,"NA",Stethoscope_02.jpg_Knife_01.jpg,1,1588
15,85,1485,filler,Tummy.wav,"NA",Tummy_02.jpg_Cereal_01.jpg,1,841
15,86,1486,filler,Maisha.wav,"NA",Maisha_01.jpg_Peaches_01.jpg,1,856
15,87,1487,filler,Orange.wav,"NA",Orange_02.jpg_Pineapple_01.jpg,0,1092
15,88,1488,filler,Tomato.wav,"NA",Tomato_01.jpg_Bubbles_01.jpg,1,1409
15,89,1489,filler,Hat.wav,"NA",Hat_02.jpg_Bunny_01.jpg,0,1253
15,90,1490,test,mumu.wav,round,Rshape5.jpg_ESlide46.jpg,1,812
15,91,1491,filler,Strawberries.wav,"NA",Strawberries_02.jpg_Celery_02.jpg,1,917
15,92,1492,filler,Knife.wav,"NA",Knife_01.jpg_Bubbles_02.jpg,1,1376
15,93,1493,filler,Potato.wav,"NA",Potato_02.jpg_Squirrel_02.jpg,1,1252
15,94,1494,filler,Blackberries.wav,"NA",Blackberries_01.jpg_Fridge_01.jpg,1,1404
15,95,1495,filler,Bunny.wav,"NA",Bunny_01.jpg_Squirrel_01.jpg,1,1281
15,96,1496,filler,Hose.wav,"NA",Hose_01.jpg_Noodles_01.jpg,1,1968
15,97,1497,filler,Wipies.wav,"NA",Wipies_02.jpg_Melon_02.jpg,1,1420
15,98,1498,filler,Pineapple.wav,"NA",Pineapple_01.jpg_Teco_01.jpg,1,1756
15,99,1499,filler,Melon.wav,"NA",Melon_02.jpg_Shirt_01.jpg,1,1213
15,100,1500,test,dudu.wav,round,RSlide33.jpg_ESlide22.jpg,1,2808
15,101,1501,filler,Swelling.wav,"NA",Swelling_01.jpg_Cherries_02.jpg,1,2489
16,2,1502,filler,Camera.wav,"NA",Camera_01.jpg_Backpack_01.jpg,1,1240
16,3,1503,filler,Trash.wav,"NA",Trash_01.jpg_Straw_02.jpg,1,2081
16,4,1504,filler,Blackberries.wav,"NA",Blackberries_02.jpg_Tummy_01.jpg,1,851
16,5,1505,filler,Toothbrush.wav,"NA",Toothbrush_02.jpg_Mushroom_02.jpg,1,1308
16,6,1506,filler,Cooler.wav,"NA",Cooler_02.jpg_Oil_02.jpg,0,1453
16,7,1507,filler,Elikya.wav,"NA",Elikya_02.jpg_Baby_02.jpg,1,1000
