SamplePic,SampleSound,SampleMovie,r,c,Correct,r_1,c_1,Foil1,r_2,c_2,Foil2,r_3,c_3,Foil3,r_4,c_4,Foil4,r_5,c_5,SampleMode,Feedback,Correct_1,RT,Comment,filename,trial,correct,shape_combination,session,cont_trial,condition,test_shape
none,Peaches.wav,none,0,0,Peaches_01.jpg,2,3,Bird_01.jpg,1,2,none,0,0,none,0,0,none,0,0,2,yes,YES,1498,SAMPLE MODE 2 - sound only,../Data/raw_data/Testing//MTS_2020_07_20_12_27_39.csv,2,1,Peaches_01.jpg_Bird_01.jpg,1,2,regular,"NA"
none,Shoe.wav,none,0,0,Shoe_01.jpg,2,3,Fridge_01.jpg,1,2,none,0,0,none,0,0,none,0,0,2,yes,YES (R),1871,SAMPLE MODE 2 - sound only,../Data/raw_data/Testing//MTS_2020_07_20_12_27_39.csv,3,1,Shoe_01.jpg_Fridge_01.jpg,1,3,regular,"NA"
none,keke.wav,none,0,0,ESlide46.jpg,3,1,RSlide19.jpg,2,3,none,0,0,none,0,0,none,0,0,2,no,NO,831,SAMPLE MODE 2 - sound only,../Data/raw_data/Testing//MTS_2020_07_20_12_27_39.csv,4,0,ESlide46.jpg_RSlide19.jpg,1,4,test,edgy
none,Cherries.wav,none,0,0,Cherries_02.jpg,1,3,Cooler_01.jpg,3,2,none,0,0,none,0,0,none,0,0,2,yes,YES (R),1625,SAMPLE MODE 2 - sound only,../Data/raw_data/Testing//MTS_2020_07_20_12_27_39.csv,5,1,Cherries_02.jpg_Cooler_01.jpg,1,5,regular,"NA"
none,Key.wav,none,0,0,Key_01.jpg,3,1,Peaches_02.jpg,1,3,none,0,0,none,0,0,none,0,0,2,yes,YES (R),988,SAMPLE MODE 2 - sound only,../Data/raw_data/Testing//MTS_2020_07_20_12_27_39.csv,6,1,Key_01.jpg_Peaches_02.jpg,1,6,regular,"NA"
none,Blanket.wav,none,0,0,Blanket_01.jpg,3,3,Trash_01.jpg,1,2,none,0,0,none,0,0,none,0,0,2,yes,NO,1341,SAMPLE MODE 2 - sound only,../Data/raw_data/Testing//MTS_2020_07_20_12_27_39.csv,7,0,Blanket_01.jpg_Trash_01.jpg,1,7,regular,"NA"
none,Teco.wav,none,0,0,Teco_02.jpg,2,2,Phone_02.jpg,1,3,none,0,0,none,0,0,none,0,0,2,yes,YES (R),1107,SAMPLE MODE 2 - sound only,../Data/raw_data/Testing//MTS_2020_07_20_12_27_39.csv,8,1,Teco_02.jpg_Phone_02.jpg,1,8,regular,"NA"
none,Mushroom.wav,none,0,0,Mushroom_01.jpg,2,1,Elikya_01.jpg,3,2,none,0,0,none,0,0,none,0,0,2,yes,YES (R),1418,SAMPLE MODE 2 - sound only,../Data/raw_data/Testing//MTS_2020_07_20_12_27_39.csv,9,1,Mushroom_01.jpg_Elikya_01.jpg,1,9,regular,"NA"
none,Balloon.wav,none,0,0,Balloon_02.jpg,1,2,Celery_01.jpg,3,1,none,0,0,none,0,0,none,0,0,2,yes,YES (R),1137,SAMPLE MODE 2 - sound only,../Data/raw_data/Testing//MTS_2020_07_20_12_27_39.csv,10,1,Balloon_02.jpg_Celery_01.jpg,1,10,regular,"NA"
none,Yogurt.wav,none,0,0,Yogurt_02.jpg,1,1,Lighter_02.jpg,3,3,none,0,0,none,0,0,none,0,0,2,yes,YES (R),1748,SAMPLE MODE 2 - sound only,../Data/raw_data/Testing//MTS_2020_07_20_12_27_39.csv,11,1,Yogurt_02.jpg_Lighter_02.jpg,1,11,regular,"NA"
none,pepe.wav,none,0,0,Eshape4.jpg,1,2,Rshape5.jpg,3,3,none,0,0,none,0,0,none,0,0,2,no,YES,1183,SAMPLE MODE 2 - sound only,../Data/raw_data/Testing//MTS_2020_07_20_12_27_39.csv,12,1,Eshape4.jpg_Rshape5.jpg,1,12,test,edgy
none,Car.wav,none,0,0,Car_02.jpg,3,2,Blackberries_01.jpg,1,3,none,0,0,none,0,0,none,0,0,2,yes,YES (R),1848,SAMPLE MODE 2 - sound only,../Data/raw_data/Testing//MTS_2020_07_20_12_27_39.csv,13,1,Car_02.jpg_Blackberries_01.jpg,1,13,regular,"NA"
none,Snake.wav,none,0,0,Snake_01.jpg,2,1,Rock_02.jpg,1,3,none,0,0,none,0,0,none,0,0,2,yes,YES (R),1292,SAMPLE MODE 2 - sound only,../Data/raw_data/Testing//MTS_2020_07_20_12_27_39.csv,14,1,Snake_01.jpg_Rock_02.jpg,1,14,regular,"NA"
none,Oil.wav,none,0,0,Oil_02.jpg,3,1,Carrot_02.jpg,1,2,none,0,0,none,0,0,none,0,0,2,yes,YES,1514,SAMPLE MODE 2 - sound only,../Data/raw_data/Testing//MTS_2020_07_20_12_27_39.csv,15,1,Oil_02.jpg_Carrot_02.jpg,1,15,regular,"NA"
none,Green Bean.wav,none,0,0,Green Bean_01.jpg,2,2,Oil_02.jpg,1,1,none,0,0,none,0,0,none,0,0,2,yes,YES (R),966,SAMPLE MODE 2 - sound only,../Data/raw_data/Testing//MTS_2020_07_20_12_27_39.csv,16,1,Green Bean_01.jpg_Oil_02.jpg,1,16,regular,"NA"
none,Milk.wav,none,0,0,Milk_02.jpg,3,2,Fish_02.jpg,2,1,none,0,0,none,0,0,none,0,0,2,yes,YES,2232,SAMPLE MODE 2 - sound only,../Data/raw_data/Testing//MTS_2020_07_20_12_27_39.csv,17,1,Milk_02.jpg_Fish_02.jpg,1,17,regular,"NA"
none,Hat.wav,none,0,0,Hat_02.jpg,3,1,Bubbles_02.jpg,1,2,none,0,0,none,0,0,none,0,0,2,yes,YES (R),1204,SAMPLE MODE 2 - sound only,../Data/raw_data/Testing//MTS_2020_07_20_12_27_39.csv,18,1,Hat_02.jpg_Bubbles_02.jpg,1,18,regular,"NA"
none,Pillow.wav,none,0,0,Pillow_01.jpg,2,2,Snake_02.jpg,1,1,none,0,0,none,0,0,none,0,0,2,yes,YES (R),1428,SAMPLE MODE 2 - sound only,../Data/raw_data/Testing//MTS_2020_07_20_12_27_39.csv,19,1,Pillow_01.jpg_Snake_02.jpg,1,19,regular,"NA"
none,Apple.wav,none,0,0,Apple_01.jpg,3,1,Ball_01.jpg,2,3,none,0,0,none,0,0,none,0,0,2,yes,NO,1553,SAMPLE MODE 2 - sound only,../Data/raw_data/Testing//MTS_2020_07_20_12_27_39.csv,20,0,Apple_01.jpg_Ball_01.jpg,1,20,regular,"NA"
none,Shirt.wav,none,0,0,Shirt_02.jpg,3,1,Key_02.jpg,2,3,none,0,0,none,0,0,none,0,0,2,yes,YES (R),1478,SAMPLE MODE 2 - sound only,../Data/raw_data/Testing//MTS_2020_07_20_12_27_39.csv,21,1,Shirt_02.jpg_Key_02.jpg,1,21,regular,"NA"
none,lulu.wav,none,0,0,RSlide9.jpg,1,1,ESlide22.jpg,2,2,none,0,0,none,0,0,none,0,0,2,no,NO,1065,SAMPLE MODE 2 - sound only,../Data/raw_data/Testing//MTS_2020_07_20_12_27_39.csv,22,0,RSlide9.jpg_ESlide22.jpg,1,22,test,round
none,Toothbrush.wav,none,0,0,Toothbrush_02.jpg,2,1,Onion_02.jpg,1,3,none,0,0,none,0,0,none,0,0,2,yes,YES (R),1462,SAMPLE MODE 2 - sound only,../Data/raw_data/Testing//MTS_2020_07_20_12_27_39.csv,23,1,Toothbrush_02.jpg_Onion_02.jpg,1,23,regular,"NA"
none,Apple.wav,none,0,0,Apple_02.jpg,1,3,Turtle_01.jpg,2,2,none,0,0,none,0,0,none,0,0,2,yes,NO,1437,SAMPLE MODE 2 - sound only,../Data/raw_data/Testing//MTS_2020_07_20_12_27_39.csv,24,0,Apple_02.jpg_Turtle_01.jpg,1,24,regular,"NA"
none,Onion.wav,none,0,0,Onion_02.jpg,1,3,Nyota_02.jpg,3,1,none,0,0,none,0,0,none,0,0,2,yes,NO,1994,SAMPLE MODE 2 - sound only,../Data/raw_data/Testing//MTS_2020_07_20_12_27_39.csv,25,0,Onion_02.jpg_Nyota_02.jpg,1,25,regular,"NA"
none,Cooler.wav,none,0,0,Cooler_01.jpg,2,1,Hand_01.jpg,1,2,none,0,0,none,0,0,none,0,0,2,yes,YES (R),1006,SAMPLE MODE 2 - sound only,../Data/raw_data/Testing//MTS_2020_07_20_12_27_39.csv,26,1,Cooler_01.jpg_Hand_01.jpg,1,26,regular,"NA"
none,Stethoscope.wav,none,0,0,Stethoscope_02.jpg,1,3,Ice_01.jpg,3,2,none,0,0,none,0,0,none,0,0,2,yes,YES (R),1594,SAMPLE MODE 2 - sound only,../Data/raw_data/Testing//MTS_2020_07_20_12_27_39.csv,27,1,Stethoscope_02.jpg_Ice_01.jpg,1,27,regular,"NA"
none,Maisha.wav,none,0,0,Maisha_01.jpg,2,3,Apple_01.jpg,1,2,none,0,0,none,0,0,none,0,0,2,yes,YES,2146,SAMPLE MODE 2 - sound only,../Data/raw_data/Testing//MTS_2020_07_20_12_27_39.csv,28,1,Maisha_01.jpg_Apple_01.jpg,1,28,regular,"NA"
none,Fish.wav,none,0,0,Fish_01.jpg,3,2,Kanzi_02.jpg,1,1,none,0,0,none,0,0,none,0,0,2,yes,YES,1374,SAMPLE MODE 2 - sound only,../Data/raw_data/Testing//MTS_2020_07_20_12_27_39.csv,29,1,Fish_01.jpg_Kanzi_02.jpg,1,29,regular,"NA"
none,Spoon.wav,none,0,0,Spoon_02.jpg,2,2,Onion_01.jpg,3,1,none,0,0,none,0,0,none,0,0,2,yes,YES (R),1144,SAMPLE MODE 2 - sound only,../Data/raw_data/Testing//MTS_2020_07_20_12_27_39.csv,30,1,Spoon_02.jpg_Onion_01.jpg,1,30,regular,"NA"
none,Raisin.wav,none,0,0,Raisin_02.jpg,2,2,Cherries_01.jpg,3,3,none,0,0,none,0,0,none,0,0,2,yes,NO,2135,SAMPLE MODE 2 - sound only,../Data/raw_data/Testing//MTS_2020_07_20_12_27_39.csv,31,0,Raisin_02.jpg_Cherries_01.jpg,1,31,regular,"NA"
none,Tea.wav,none,0,0,Tea_02.jpg,2,3,Pear_01.jpg,1,1,none,0,0,none,0,0,none,0,0,2,yes,YES,1343,SAMPLE MODE 2 - sound only,../Data/raw_data/Testing//MTS_2020_07_20_12_27_39.csv,32,1,Tea_02.jpg_Pear_01.jpg,1,32,regular,"NA"
none,Sweet Potato.wav,none,0,0,Sweet Potato_02.jpg,2,3,Egg_02.jpg,1,1,none,0,0,none,0,0,none,0,0,2,yes,YES (R),2460,SAMPLE MODE 2 - sound only,../Data/raw_data/Testing//MTS_2020_07_20_12_27_39.csv,33,1,Sweet Potato_02.jpg_Egg_02.jpg,1,33,regular,"NA"
none,gogo.wav,none,0,0,RSlide26.jpg,1,1,Eshape3.jpg,3,3,none,0,0,none,0,0,none,0,0,2,no,NO,939,SAMPLE MODE 2 - sound only,../Data/raw_data/Testing//MTS_2020_07_20_12_27_39.csv,34,0,RSlide26.jpg_Eshape3.jpg,1,34,test,round
none,Jelly.wav,none,0,0,Jelly_02.jpg,3,1,Vitamin_01.jpg,2,3,none,0,0,none,0,0,none,0,0,2,yes,NO,1601,SAMPLE MODE 2 - sound only,../Data/raw_data/Testing//MTS_2020_07_20_12_27_39.csv,35,0,Jelly_02.jpg_Vitamin_01.jpg,1,35,regular,"NA"
none,Fire.wav,none,0,0,Fire_01.jpg,3,2,Juice_02.jpg,2,3,none,0,0,none,0,0,none,0,0,2,yes,YES,1486,SAMPLE MODE 2 - sound only,../Data/raw_data/Testing//MTS_2020_07_20_12_27_39.csv,36,1,Fire_01.jpg_Juice_02.jpg,1,36,regular,"NA"
none,Grapes.wav,none,0,0,Grapes_02.jpg,3,2,Cooler_02.jpg,2,3,none,0,0,none,0,0,none,0,0,2,yes,YES (R),799,SAMPLE MODE 2 - sound only,../Data/raw_data/Testing//MTS_2020_07_20_12_27_39.csv,37,1,Grapes_02.jpg_Cooler_02.jpg,1,37,regular,"NA"
none,Turtle.wav,none,0,0,Turtle_01.jpg,1,1,Shoe_02.jpg,3,3,none,0,0,none,0,0,none,0,0,2,yes,NO,1041,SAMPLE MODE 2 - sound only,../Data/raw_data/Testing//MTS_2020_07_20_12_27_39.csv,38,0,Turtle_01.jpg_Shoe_02.jpg,1,38,regular,"NA"
none,Pear.wav,none,0,0,Pear_02.jpg,3,1,Bug_02.jpg,2,2,none,0,0,none,0,0,none,0,0,2,yes,YES (R),1232,SAMPLE MODE 2 - sound only,../Data/raw_data/Testing//MTS_2020_07_20_12_27_39.csv,39,1,Pear_02.jpg_Bug_02.jpg,1,39,regular,"NA"
none,Stethoscope.wav,none,0,0,Stethoscope_01.jpg,2,3,Tea_01.jpg,3,2,none,0,0,none,0,0,none,0,0,2,yes,YES (R),1383,SAMPLE MODE 2 - sound only,../Data/raw_data/Testing//MTS_2020_07_20_12_27_39.csv,40,1,Stethoscope_01.jpg_Tea_01.jpg,1,40,regular,"NA"
none,Camera.wav,none,0,0,Camera_01.jpg,3,3,Pineapple_01.jpg,2,2,none,0,0,none,0,0,none,0,0,2,yes,YES,1100,SAMPLE MODE 2 - sound only,../Data/raw_data/Testing//MTS_2020_07_20_12_27_39.csv,41,1,Camera_01.jpg_Pineapple_01.jpg,1,41,regular,"NA"
none,Sugar Cane.wav,none,0,0,Sugar Cane_02.jpg,2,3,Tv_01.jpg,3,1,none,0,0,none,0,0,none,0,0,2,yes,YES (R),1086,SAMPLE MODE 2 - sound only,../Data/raw_data/Testing//MTS_2020_07_20_12_27_39.csv,42,1,Sugar Cane_02.jpg_Tv_01.jpg,1,42,regular,"NA"
none,Egg.wav,none,0,0,Egg_01.jpg,3,1,Tv_02.jpg,1,2,none,0,0,none,0,0,none,0,0,2,yes,YES (R),919,SAMPLE MODE 2 - sound only,../Data/raw_data/Testing//MTS_2020_07_20_12_27_39.csv,43,1,Egg_01.jpg_Tv_02.jpg,1,43,regular,"NA"
none,dodo.wav,none,0,0,RSlide37.jpg,2,2,Eshape.jpg,1,1,none,0,0,none,0,0,none,0,0,2,no,YES,1069,SAMPLE MODE 2 - sound only,../Data/raw_data/Testing//MTS_2020_07_20_12_27_39.csv,44,1,RSlide37.jpg_Eshape.jpg,1,44,test,round
none,Water.wav,none,0,0,Water_02.jpg,2,3,Raisin_01.jpg,3,1,none,0,0,none,0,0,none,0,0,2,yes,YES (R),1736,SAMPLE MODE 2 - sound only,../Data/raw_data/Testing//MTS_2020_07_20_12_27_39.csv,45,1,Water_02.jpg_Raisin_01.jpg,1,45,regular,"NA"
none,Ear.wav,none,0,0,Ear_02.jpg,3,2,Backpack_02.jpg,1,1,none,0,0,none,0,0,none,0,0,2,yes,YES,1333,SAMPLE MODE 2 - sound only,../Data/raw_data/Testing//MTS_2020_07_20_12_27_39.csv,46,1,Ear_02.jpg_Backpack_02.jpg,1,46,regular,"NA"
none,Backpack.wav,none,0,0,Backpack_01.jpg,1,1,Maisha_02.jpg,2,2,none,0,0,none,0,0,none,0,0,2,yes,YES (R),1340,SAMPLE MODE 2 - sound only,../Data/raw_data/Testing//MTS_2020_07_20_12_27_39.csv,47,1,Backpack_01.jpg_Maisha_02.jpg,1,47,regular,"NA"
none,Water.wav,none,0,0,Water_01.jpg,2,1,Coconut_02.jpg,3,3,none,0,0,none,0,0,none,0,0,2,yes,NO,1214,SAMPLE MODE 2 - sound only,../Data/raw_data/Testing//MTS_2020_07_20_12_27_39.csv,48,0,Water_01.jpg_Coconut_02.jpg,1,48,regular,"NA"
none,Bird.wav,none,0,0,Bird_01.jpg,3,1,Swelling_02.jpg,1,2,none,0,0,none,0,0,none,0,0,2,yes,YES,1695,SAMPLE MODE 2 - sound only,../Data/raw_data/Testing//MTS_2020_07_20_12_27_39.csv,49,1,Bird_01.jpg_Swelling_02.jpg,1,49,regular,"NA"
none,Raisin.wav,none,0,0,Raisin_01.jpg,3,2,Pinecone_02.jpg,2,1,none,0,0,none,0,0,none,0,0,2,yes,YES (R),927,SAMPLE MODE 2 - sound only,../Data/raw_data/Testing//MTS_2020_07_20_12_27_39.csv,50,1,Raisin_01.jpg_Pinecone_02.jpg,1,50,regular,"NA"
none,Orange.wav,none,0,0,Orange_01.jpg,2,3,Tea_02.jpg,3,1,none,0,0,none,0,0,none,0,0,2,yes,NO,1729,SAMPLE MODE 2 - sound only,../Data/raw_data/Testing//MTS_2020_07_20_12_27_39.csv,51,0,Orange_01.jpg_Tea_02.jpg,1,51,regular,"NA"
none,Peanut.wav,none,0,0,Peanut_01.jpg,3,3,Ear_02.jpg,2,2,none,0,0,none,0,0,none,0,0,2,yes,YES (R),1895,SAMPLE MODE 2 - sound only,../Data/raw_data/Testing//MTS_2020_07_20_12_27_39.csv,52,1,Peanut_01.jpg_Ear_02.jpg,1,52,regular,"NA"
none,Hose.wav,none,0,0,Hose_02.jpg,2,1,Balloon_02.jpg,1,3,none,0,0,none,0,0,none,0,0,2,yes,YES (R),1404,SAMPLE MODE 2 - sound only,../Data/raw_data/Testing//MTS_2020_07_20_12_27_39.csv,53,1,Hose_02.jpg_Balloon_02.jpg,1,53,regular,"NA"
none,Hat.wav,none,0,0,Hat_01.jpg,1,3,Nyota_01.jpg,2,2,none,0,0,none,0,0,none,0,0,2,yes,YES (R),1366,SAMPLE MODE 2 - sound only,../Data/raw_data/Testing//MTS_2020_07_20_12_27_39.csv,54,1,Hat_01.jpg_Nyota_01.jpg,1,54,regular,"NA"
none,Tomato.wav,none,0,0,Tomato_01.jpg,1,3,Baby_02.jpg,3,2,none,0,0,none,0,0,none,0,0,2,yes,YES (R),1462,SAMPLE MODE 2 - sound only,../Data/raw_data/Testing//MTS_2020_07_20_12_27_39.csv,55,1,Tomato_01.jpg_Baby_02.jpg,1,55,regular,"NA"
none,Blueberry.wav,none,0,0,Blueberry_02.jpg,1,1,Fridge_02.jpg,2,3,none,0,0,none,0,0,none,0,0,2,yes,YES (R),1325,SAMPLE MODE 2 - sound only,../Data/raw_data/Testing//MTS_2020_07_20_12_27_39.csv,56,1,Blueberry_02.jpg_Fridge_02.jpg,1,56,regular,"NA"
none,Vitamin.wav,none,0,0,Vitamin_02.jpg,1,3,Knife_02.jpg,3,2,none,0,0,none,0,0,none,0,0,2,yes,NO,2130,SAMPLE MODE 2 - sound only,../Data/raw_data/Testing//MTS_2020_07_20_12_27_39.csv,57,0,Vitamin_02.jpg_Knife_02.jpg,1,57,regular,"NA"
none,sisi.wav,none,0,0,ESlide8.jpg,2,3,RSlide21.jpg,1,1,none,0,0,none,0,0,none,0,0,2,no,YES,890,SAMPLE MODE 2 - sound only,../Data/raw_data/Testing//MTS_2020_07_20_12_27_39.csv,58,1,ESlide8.jpg_RSlide21.jpg,1,58,test,edgy
none,Lettuce.wav,none,0,0,Lettuce_01.jpg,2,2,Pineapple_02.jpg,1,1,none,0,0,none,0,0,none,0,0,2,yes,YES,1592,SAMPLE MODE 2 - sound only,../Data/raw_data/Testing//MTS_2020_07_20_12_27_39.csv,59,1,Lettuce_01.jpg_Pineapple_02.jpg,1,59,regular,"NA"
none,Bug.wav,none,0,0,Bug_02.jpg,2,3,Egg_01.jpg,1,2,none,0,0,none,0,0,none,0,0,2,yes,YES (R),1760,SAMPLE MODE 2 - sound only,../Data/raw_data/Testing//MTS_2020_07_20_12_27_39.csv,60,1,Bug_02.jpg_Egg_01.jpg,1,60,regular,"NA"
none,Mushroom.wav,none,0,0,Mushroom_02.jpg,3,1,Tummy_01.jpg,1,2,none,0,0,none,0,0,none,0,0,2,yes,YES (R),1068,SAMPLE MODE 2 - sound only,../Data/raw_data/Testing//MTS_2020_07_20_12_27_39.csv,61,1,Mushroom_02.jpg_Tummy_01.jpg,1,61,regular,"NA"
none,Pinecone.wav,none,0,0,Pinecone_02.jpg,1,3,Straw_02.jpg,3,2,none,0,0,none,0,0,none,0,0,2,yes,YES (R),1473,SAMPLE MODE 2 - sound only,../Data/raw_data/Testing//MTS_2020_07_20_12_27_39.csv,62,1,Pinecone_02.jpg_Straw_02.jpg,1,62,regular,"NA"
none,Turtle.wav,none,0,0,Turtle_02.jpg,2,1,Peanut_02.jpg,1,3,none,0,0,none,0,0,none,0,0,2,yes,YES (R),1374,SAMPLE MODE 2 - sound only,../Data/raw_data/Testing//MTS_2020_07_20_12_27_39.csv,63,1,Turtle_02.jpg_Peanut_02.jpg,1,63,regular,"NA"
none,Balloon.wav,none,0,0,Balloon_01.jpg,1,1,Pillow_02.jpg,3,2,none,0,0,none,0,0,none,0,0,2,yes,YES (R),1297,SAMPLE MODE 2 - sound only,../Data/raw_data/Testing//MTS_2020_07_20_12_27_39.csv,64,1,Balloon_01.jpg_Pillow_02.jpg,1,64,regular,"NA"
none,Bread.wav,none,0,0,Bread_01.jpg,2,3,Hose_01.jpg,3,2,none,0,0,none,0,0,none,0,0,2,yes,YES (R),1311,SAMPLE MODE 2 - sound only,../Data/raw_data/Testing//MTS_2020_07_20_12_27_39.csv,65,1,Bread_01.jpg_Hose_01.jpg,1,65,regular,"NA"
none,Shirt.wav,none,0,0,Shirt_01.jpg,1,1,Squirrel_02.jpg,2,2,none,0,0,none,0,0,none,0,0,2,yes,NO,1580,SAMPLE MODE 2 - sound only,../Data/raw_data/Testing//MTS_2020_07_20_12_27_39.csv,66,0,Shirt_01.jpg_Squirrel_02.jpg,1,66,regular,"NA"
none,sese.wav,none,0,0,ESlide34.jpg,2,1,RSlide2.jpg,1,3,none,0,0,none,0,0,none,0,0,2,no,YES,1123,SAMPLE MODE 2 - sound only,../Data/raw_data/Testing//MTS_2020_07_20_12_27_39.csv,67,1,ESlide34.jpg_RSlide2.jpg,1,67,test,edgy
none,Foot.wav,none,0,0,Foot_01.jpg,3,2,Fire_02.jpg,1,3,none,0,0,none,0,0,none,0,0,2,yes,NO,1193,SAMPLE MODE 2 - sound only,../Data/raw_data/Testing//MTS_2020_07_20_12_27_39.csv,68,0,Foot_01.jpg_Fire_02.jpg,1,68,regular,"NA"
none,Orangutan.wav,none,0,0,Orangutan_01.jpg,1,3,Coconut_01.jpg,3,2,none,0,0,none,0,0,none,0,0,2,yes,YES (R),1187,SAMPLE MODE 2 - sound only,../Data/raw_data/Testing//MTS_2020_07_20_12_27_39.csv,69,1,Orangutan_01.jpg_Coconut_01.jpg,1,69,regular,"NA"
none,Bunny.wav,none,0,0,Bunny_02.jpg,3,1,Camera_01.jpg,1,3,none,0,0,none,0,0,none,0,0,2,yes,YES (R),1286,SAMPLE MODE 2 - sound only,../Data/raw_data/Testing//MTS_2020_07_20_12_27_39.csv,70,1,Bunny_02.jpg_Camera_01.jpg,1,70,regular,"NA"
none,Blackberries.wav,none,0,0,Blackberries_01.jpg,2,1,Bubbles_01.jpg,3,3,none,0,0,none,0,0,none,0,0,2,yes,NO,1223,SAMPLE MODE 2 - sound only,../Data/raw_data/Testing//MTS_2020_07_20_12_27_39.csv,71,0,Blackberries_01.jpg_Bubbles_01.jpg,1,71,regular,"NA"
none,nono.wav,none,0,0,RSlide27.jpg,3,1,ESlide18.jpg,2,3,none,0,0,none,0,0,none,0,0,2,no,NO,1057,SAMPLE MODE 2 - sound only,../Data/raw_data/Testing//MTS_2020_07_20_12_27_39.csv,72,0,RSlide27.jpg_ESlide18.jpg,1,72,test,round
none,Bug.wav,none,0,0,Bug_01.jpg,2,3,Squirrel_01.jpg,3,2,none,0,0,none,0,0,none,0,0,2,yes,NO,1189,SAMPLE MODE 2 - sound only,../Data/raw_data/Testing//MTS_2020_07_20_12_27_39.csv,73,0,Bug_01.jpg_Squirrel_01.jpg,1,73,regular,"NA"
none,Baby.wav,none,0,0,Baby_02.jpg,2,3,Groom_02.jpg,1,2,none,0,0,none,0,0,none,0,0,2,yes,NO,1467,SAMPLE MODE 2 - sound only,../Data/raw_data/Testing//MTS_2020_07_20_12_27_39.csv,74,0,Baby_02.jpg_Groom_02.jpg,1,74,regular,"NA"
none,Car.wav,none,0,0,Car_01.jpg,2,2,Raisin_02.jpg,1,1,none,0,0,none,0,0,none,0,0,2,yes,YES (R),1623,SAMPLE MODE 2 - sound only,../Data/raw_data/Testing//MTS_2020_07_20_12_27_39.csv,75,1,Car_01.jpg_Raisin_02.jpg,1,75,regular,"NA"
none,Strawberries.wav,none,0,0,Strawberries_01.jpg,3,2,Ball_02.jpg,2,1,none,0,0,none,0,0,none,0,0,2,yes,YES (R),1795,SAMPLE MODE 2 - sound only,../Data/raw_data/Testing//MTS_2020_07_20_12_27_39.csv,76,1,Strawberries_01.jpg_Ball_02.jpg,1,76,regular,"NA"
none,Key.wav,none,0,0,Key_02.jpg,3,3,Watermelon_01.jpg,2,1,none,0,0,none,0,0,none,0,0,2,yes,YES,1453,SAMPLE MODE 2 - sound only,../Data/raw_data/Testing//MTS_2020_07_20_12_27_39.csv,77,1,Key_02.jpg_Watermelon_01.jpg,1,77,regular,"NA"
none,Stick.wav,none,0,0,Stick_01.jpg,2,1,Green Bean_01.jpg,3,2,none,0,0,none,0,0,none,0,0,2,yes,YES (R),1424,SAMPLE MODE 2 - sound only,../Data/raw_data/Testing//MTS_2020_07_20_12_27_39.csv,78,1,Stick_01.jpg_Green Bean_01.jpg,1,78,regular,"NA"
none,Trash.wav,none,0,0,Trash_01.jpg,3,1,Cheese_02.jpg,2,3,none,0,0,none,0,0,none,0,0,2,yes,YES (R),2609,SAMPLE MODE 2 - sound only,../Data/raw_data/Testing//MTS_2020_07_20_12_27_39.csv,79,1,Trash_01.jpg_Cheese_02.jpg,1,79,regular,"NA"
none,Peas.wav,none,0,0,Peas_02.jpg,3,3,Hand_02.jpg,2,1,none,0,0,none,0,0,none,0,0,2,yes,YES (R),1162,SAMPLE MODE 2 - sound only,../Data/raw_data/Testing//MTS_2020_07_20_12_27_39.csv,80,1,Peas_02.jpg_Hand_02.jpg,1,80,regular,"NA"
none,Foot.wav,none,0,0,Foot_02.jpg,2,3,Ice_02.jpg,1,1,none,0,0,none,0,0,none,0,0,2,yes,YES,3745,SAMPLE MODE 2 - sound only,../Data/raw_data/Testing//MTS_2020_07_20_12_27_39.csv,81,1,Foot_02.jpg_Ice_02.jpg,1,81,regular,"NA"
none,Nyota.wav,none,0,0,Nyota_01.jpg,3,3,Shirt_02.jpg,1,1,none,0,0,none,0,0,none,0,0,2,yes,YES,1650,SAMPLE MODE 2 - sound only,../Data/raw_data/Testing//MTS_2020_07_20_12_27_39.csv,82,1,Nyota_01.jpg_Shirt_02.jpg,1,82,regular,"NA"
none,dudu.wav,none,0,0,RSlide33.jpg,2,2,ESlide38.jpg,3,3,none,0,0,none,0,0,none,0,0,2,no,YES,975,SAMPLE MODE 2 - sound only,../Data/raw_data/Testing//MTS_2020_07_20_12_27_39.csv,83,1,RSlide33.jpg_ESlide38.jpg,1,83,test,round
none,Maisha.wav,none,0,0,Maisha_02.jpg,1,3,Sugar Cane_01.jpg,3,2,none,0,0,none,0,0,none,0,0,2,yes,YES,1391,SAMPLE MODE 2 - sound only,../Data/raw_data/Testing//MTS_2020_07_20_12_27_39.csv,84,1,Maisha_02.jpg_Sugar Cane_01.jpg,1,84,regular,"NA"
none,Ear.wav,none,0,0,Ear_01.jpg,3,1,Fish_01.jpg,2,2,none,0,0,none,0,0,none,0,0,2,yes,YES,1096,SAMPLE MODE 2 - sound only,../Data/raw_data/Testing//MTS_2020_07_20_12_27_39.csv,85,1,Ear_01.jpg_Fish_01.jpg,1,85,regular,"NA"
none,Cherries.wav,none,0,0,Cherries_01.jpg,1,2,Turtle_02.jpg,2,3,none,0,0,none,0,0,none,0,0,2,yes,YES (R),1019,SAMPLE MODE 2 - sound only,../Data/raw_data/Testing//MTS_2020_07_20_12_27_39.csv,86,1,Cherries_01.jpg_Turtle_02.jpg,1,86,regular,"NA"
none,Pinecone.wav,none,0,0,Pinecone_01.jpg,3,3,Hat_01.jpg,2,2,none,0,0,none,0,0,none,0,0,2,yes,YES,956,SAMPLE MODE 2 - sound only,../Data/raw_data/Testing//MTS_2020_07_20_12_27_39.csv,87,1,Pinecone_01.jpg_Hat_01.jpg,1,87,regular,"NA"
none,Ball.wav,none,0,0,Ball_02.jpg,1,1,Gorilla_02.jpg,3,2,none,0,0,none,0,0,none,0,0,2,yes,NO,3599,SAMPLE MODE 2 - sound only,../Data/raw_data/Testing//MTS_2020_07_20_12_27_39.csv,88,0,Ball_02.jpg_Gorilla_02.jpg,1,88,regular,"NA"
none,Milk.wav,none,0,0,Milk_01.jpg,1,2,Toothbrush_02.jpg,3,3,none,0,0,none,0,0,none,0,0,2,yes,NO,1536,SAMPLE MODE 2 - sound only,../Data/raw_data/Testing//MTS_2020_07_20_12_27_39.csv,89,0,Milk_01.jpg_Toothbrush_02.jpg,1,89,regular,"NA"
none,Pineapple.wav,none,0,0,Pineapple_01.jpg,1,2,Lettuce_01.jpg,3,3,none,0,0,none,0,0,none,0,0,2,yes,YES (R),1223,SAMPLE MODE 2 - sound only,../Data/raw_data/Testing//MTS_2020_07_20_12_27_39.csv,90,1,Pineapple_01.jpg_Lettuce_01.jpg,1,90,regular,"NA"
none,Phone.wav,none,0,0,Phone_01.jpg,1,2,Green Bean_02.jpg,3,3,none,0,0,none,0,0,none,0,0,2,yes,YES,1394,SAMPLE MODE 2 - sound only,../Data/raw_data/Testing//MTS_2020_07_20_12_27_39.csv,91,1,Phone_01.jpg_Green Bean_02.jpg,1,91,regular,"NA"
none,Peas.wav,none,0,0,Peas_01.jpg,1,3,Lemon_02.jpg,2,2,none,0,0,none,0,0,none,0,0,2,yes,YES (R),1610,SAMPLE MODE 2 - sound only,../Data/raw_data/Testing//MTS_2020_07_20_12_27_39.csv,92,1,Peas_01.jpg_Lemon_02.jpg,1,92,regular,"NA"
none,Tv.wav,none,0,0,Tv_02.jpg,2,2,Straw_01.jpg,1,1,none,0,0,none,0,0,none,0,0,2,yes,YES,1046,SAMPLE MODE 2 - sound only,../Data/raw_data/Testing//MTS_2020_07_20_12_27_39.csv,93,1,Tv_02.jpg_Straw_01.jpg,1,93,regular,"NA"
none,Cereal.wav,none,0,0,Cereal_01.jpg,3,1,Wipies_02.jpg,2,3,none,0,0,none,0,0,none,0,0,2,yes,YES,1553,SAMPLE MODE 2 - sound only,../Data/raw_data/Testing//MTS_2020_07_20_12_27_39.csv,94,1,Cereal_01.jpg_Wipies_02.jpg,1,94,regular,"NA"
none,Bubbles.wav,none,0,0,Bubbles_01.jpg,3,3,Carrot_01.jpg,1,2,none,0,0,none,0,0,none,0,0,2,yes,YES,2337,SAMPLE MODE 2 - sound only,../Data/raw_data/Testing//MTS_2020_07_20_12_27_39.csv,95,1,Bubbles_01.jpg_Carrot_01.jpg,1,95,regular,"NA"
none,Orangutan.wav,none,0,0,Orangutan_02.jpg,3,3,Knife_01.jpg,2,2,none,0,0,none,0,0,none,0,0,2,yes,YES,1337,SAMPLE MODE 2 - sound only,../Data/raw_data/Testing//MTS_2020_07_20_12_27_39.csv,96,1,Orangutan_02.jpg_Knife_01.jpg,1,96,regular,"NA"
none,Wipies.wav,none,0,0,Wipies_02.jpg,2,2,Dog_01.jpg,1,1,none,0,0,none,0,0,none,0,0,2,yes,YES (R),1194,SAMPLE MODE 2 - sound only,../Data/raw_data/Testing//MTS_2020_07_20_12_27_39.csv,97,1,Wipies_02.jpg_Dog_01.jpg,1,97,regular,"NA"
none,pipi.wav,none,0,0,ESlide6.jpg,2,1,RSlide17.jpg,3,3,none,0,0,none,0,0,none,0,0,2,no,NO,1380,SAMPLE MODE 2 - sound only,../Data/raw_data/Testing//MTS_2020_07_20_12_27_39.csv,98,0,ESlide6.jpg_RSlide17.jpg,1,98,test,edgy
none,Groom.wav,none,0,0,Groom_01.jpg,3,2,Banana_01.jpg,1,1,none,0,0,none,0,0,none,0,0,2,yes,YES (R),957,SAMPLE MODE 2 - sound only,../Data/raw_data/Testing//MTS_2020_07_20_12_27_39.csv,99,1,Groom_01.jpg_Banana_01.jpg,1,99,regular,"NA"
none,Apricot.wav,none,0,0,Apricot_02.jpg,2,3,Stick_01.jpg,3,2,none,0,0,none,0,0,none,0,0,2,yes,YES (R),1214,SAMPLE MODE 2 - sound only,../Data/raw_data/Testing//MTS_2020_07_20_12_27_39.csv,100,1,Apricot_02.jpg_Stick_01.jpg,1,100,regular,"NA"
none,Swelling.wav,none,0,0,Swelling_02.jpg,3,1,Oil_01.jpg,1,2,none,0,0,none,0,0,none,0,0,2,yes,YES (R),2421,SAMPLE MODE 2 -;sound only,../Data/raw_data/Testing//MTS_2020_07_21_01_13_54.csv,2,1,Swelling_02.jpg_Oil_01.jpg,2,102,regular,"NA"
none,Rock.wav,none,0,0,Rock_01.jpg,2,2,Spoon_01.jpg,3,3,none,0,0,none,0,0,none,0,0,2,yes,NO,1762,SAMPLE MODE 2 -;sound only,../Data/raw_data/Testing//MTS_2020_07_21_01_13_54.csv,3,0,Rock_01.jpg_Spoon_01.jpg,2,103,regular,"NA"
none,Gorilla.wav,none,0,0,Gorilla_02.jpg,1,2,Spoon_02.jpg,3,1,none,0,0,none,0,0,none,0,0,2,yes,NO,1216,SAMPLE MODE 2;- sound only,../Data/raw_data/Testing//MTS_2020_07_21_01_13_54.csv,4,0,Gorilla_02.jpg_Spoon_02.jpg,2,104,regular,"NA"
none,Lighter.wav,none,0,0,Lighter_01.jpg,3,3,Kanzi_01.jpg,1,2,none,0,0,none,0,0,none,0,0,2,yes,YES (R),1110,SAMPLE MODE 2 -;sound only,../Data/raw_data/Testing//MTS_2020_07_21_01_13_54.csv,5,1,Lighter_01.jpg_Kanzi_01.jpg,2,105,regular,"NA"
none,fifi.wav,none,0,0,ESlide38.jpg,3,3,RSlide17.jpg,2,2,none,0,0,none,0,0,none,0,0,2,no,NO,3664,SAMPLE MODE 2 -;sound only,../Data/raw_data/Testing//MTS_2020_07_21_01_13_54.csv,6,0,ESlide38.jpg_RSlide17.jpg,2,106,test,edgy
none,Gorilla.wav,none,0,0,Gorilla_01.jpg,1,2,Blanket_01.jpg,3,3,none,0,0,none,0,0,none,0,0,2,yes,YES (R),1490,SAMPLE;MODE 2 - sound only,../Data/raw_data/Testing//MTS_2020_07_21_01_13_54.csv,7,1,Gorilla_01.jpg_Blanket_01.jpg,2,107,regular,"NA"
none,Fridge.wav,none,0,0,Fridge_02.jpg,3,2,Foot_02.jpg,1,1,none,0,0,none,0,0,none,0,0,2,yes,YES (R),3942,SAMPLE MODE 2 - sound;only,../Data/raw_data/Testing//MTS_2020_07_21_01_13_54.csv,8,1,Fridge_02.jpg_Foot_02.jpg,2,108,regular,"NA"
none,Lighter.wav,none,0,0,Lighter_02.jpg,2,1,Lettuce_02.jpg,1,3,none,0,0,none,0,0,none,0,0,2,yes,NO,1985,SAMPLE MODE;2 - sound only,../Data/raw_data/Testing//MTS_2020_07_21_01_13_54.csv,9,0,Lighter_02.jpg_Lettuce_02.jpg,2,109,regular,"NA"
none,Cheese.wav,none,0,0,Cheese_01.jpg,2,1,Orangutan_02.jpg,1,2,none,0,0,none,0,0,none,0,0,2,yes,YES (R),1513,SAMPLE MOD;E 2 - sound only,../Data/raw_data/Testing//MTS_2020_07_21_01_13_54.csv,10,1,Cheese_01.jpg_Orangutan_02.jpg,2,110,regular,"NA"
none,Ice.wav,none,0,0,Ice_02.jpg,2,2,Water_02.jpg,1,3,none,0,0,none,0,0,none,0,0,2,yes,YES (R),998,SAMPLE MODE 2 -;sound only,../Data/raw_data/Testing//MTS_2020_07_21_01_13_54.csv,11,1,Ice_02.jpg_Water_02.jpg,2,111,regular,"NA"
none,Blueberry.wav,none,0,0,Blueberry_01.jpg,1,3,Teco_02.jpg,3,1,none,0,0,none,0,0,none,0,0,2,yes,YES,1497,SAMPLE MODE;2 - sound only,../Data/raw_data/Testing//MTS_2020_07_21_01_13_54.csv,12,1,Blueberry_01.jpg_Teco_02.jpg,2,112,regular,"NA"
none,Watermelon.wav,none,0,0,Watermelon_02.jpg,3,2,Peaches_01.jpg,1,1,none,0,0,none,0,0,none,0,0,2,yes,YES,3939,SAMPLE MODE 2;- sound only,../Data/raw_data/Testing//MTS_2020_07_21_01_13_54.csv,13,1,Watermelon_02.jpg_Peaches_01.jpg,2,113,regular,"NA"
none,Baby.wav,none,0,0,Baby_01.jpg,1,1,Fire_01.jpg,3,2,none,0,0,none,0,0,none,0,0,2,yes,NO,1329,SAMPLE MODE;2 - sound only,../Data/raw_data/Testing//MTS_2020_07_21_01_13_54.csv,14,0,Baby_01.jpg_Fire_01.jpg,2,114,regular,"NA"
none,Sweet Potato.wav,none,0,0,Sweet Potato_01.jpg,2,3,Strawberries_02.jpg,3,1,none,0,0,none,0,0,none,0,0,2,yes,YES (R),1527,SAMPLE MODE;2 - sound only,../Data/raw_data/Testing//MTS_2020_07_21_01_13_54.csv,15,1,Sweet Potato_01.jpg_Strawberries_02.jpg,2,115,regular,"NA"
none,Straw.wav,none,0,0,Straw_02.jpg,3,3,Matata_01.jpg,2,2,none,0,0,none,0,0,none,0,0,2,yes,YES (R),1802,SAMPLE;MODE 2 - sound only,../Data/raw_data/Testing//MTS_2020_07_21_01_13_54.csv,16,1,Straw_02.jpg_Matata_01.jpg,2,116,regular,"NA"
none,Camera.wav,none,0,0,Camera_02.jpg,3,3,Bread_02.jpg,2,2,none,0,0,none,0,0,none,0,0,2,yes,YES,1365,SAMPLE MODE 2 - s;ound only,../Data/raw_data/Testing//MTS_2020_07_21_01_13_54.csv,17,1,Camera_02.jpg_Bread_02.jpg,2,117,regular,"NA"
none,Swelling.wav,none,0,0,Swelling_01.jpg,1,1,Jelly_02.jpg,2,2,none,0,0,none,0,0,none,0,0,2,yes,YES (R),1027,SAMPLE MO;DE 2 - sound only,../Data/raw_data/Testing//MTS_2020_07_21_01_13_54.csv,18,1,Swelling_01.jpg_Jelly_02.jpg,2,118,regular,"NA"
none,lolo.wav,none,0,0,RSlide19.jpg,2,2,ESlide22.jpg,3,1,none,0,0,none,0,0,none,0,0,2,no,YES,916,SAMPLE M;ODE 2 - sound only,../Data/raw_data/Testing//MTS_2020_07_21_01_13_54.csv,19,1,RSlide19.jpg_ESlide22.jpg,2,119,test,round
none,Snake.wav,none,0,0,Snake_02.jpg,1,3,Backpack_01.jpg,3,1,none,0,0,none,0,0,none,0,0,2,yes,YES,1508,SAMPLE MODE 2 -;sound only,../Data/raw_data/Testing//MTS_2020_07_21_01_13_54.csv,20,1,Snake_02.jpg_Backpack_01.jpg,2,120,regular,"NA"
none,Tea.wav,none,0,0,Tea_01.jpg,2,2,Jelly_01.jpg,1,3,none,0,0,none,0,0,none,0,0,2,yes,YES (R),1737,SAMPLE MODE;2 - sound only,../Data/raw_data/Testing//MTS_2020_07_21_01_13_54.csv,21,1,Tea_01.jpg_Jelly_01.jpg,2,121,regular,"NA"
none,zizi.wav,none,0,0,ESlide6.jpg,2,3,RSlide33.jpg,1,1,none,0,0,none,0,0,none,0,0,2,no,YES,1277,SAMPLE M;ODE 2 - sound only,../Data/raw_data/Testing//MTS_2020_07_21_01_13_54.csv,22,1,ESlide6.jpg_RSlide33.jpg,2,122,test,edgy
none,Strawberries.wav,none,0,0,Strawberries_02.jpg,3,2,Matata_02.jpg,2,1,none,0,0,none,0,0,none,0,0,2,yes,YES,829,SAMPLE MODE 2 -;sound only,../Data/raw_data/Testing//MTS_2020_07_21_01_13_54.csv,23,1,Strawberries_02.jpg_Matata_02.jpg,2,123,regular,"NA"
none,Dog.wav,none,0,0,Dog_01.jpg,1,3,Stethoscope_01.jpg,3,1,none,0,0,none,0,0,none,0,0,2,yes,YES,1329,SAMPLE MO;DE 2 - sound only,../Data/raw_data/Testing//MTS_2020_07_21_01_13_54.csv,24,1,Dog_01.jpg_Stethoscope_01.jpg,2,124,regular,"NA"
none,Egg.wav,none,0,0,Egg_02.jpg,2,3,Key_01.jpg,1,1,none,0,0,none,0,0,none,0,0,2,yes,YES,1259,S;AMPLE MODE 2 - sound only,../Data/raw_data/Testing//MTS_2020_07_21_01_13_54.csv,25,1,Egg_02.jpg_Key_01.jpg,2,125,regular,"NA"
none,Shoe.wav,none,0,0,Shoe_02.jpg,2,2,Celery_02.jpg,3,3,none,0,0,none,0,0,none,0,0,2,yes,YES,1323,SAMPLE MODE 2 - s;ound only,../Data/raw_data/Testing//MTS_2020_07_21_01_13_54.csv,26,1,Shoe_02.jpg_Celery_02.jpg,2,126,regular,"NA"
none,Oil.wav,none,0,0,Oil_01.jpg,1,3,Apricot_01.jpg,3,2,none,0,0,none,0,0,none,0,0,2,yes,YES (R),1217,SAMP;LE MODE 2 - sound only,../Data/raw_data/Testing//MTS_2020_07_21_01_13_54.csv,27,1,Oil_01.jpg_Apricot_01.jpg,2,127,regular,"NA"
none,Fridge.wav,none,0,0,Fridge_01.jpg,2,3,Car_02.jpg,1,1,none,0,0,none,0,0,none,0,0,2,yes,YES (R),1443,SAMPLE MODE 2 -;sound only,../Data/raw_data/Testing//MTS_2020_07_21_01_13_54.csv,28,1,Fridge_01.jpg_Car_02.jpg,2,128,regular,"NA"
none,Knife.wav,none,0,0,Knife_01.jpg,3,2,Popsicle_01.jpg,2,1,none,0,0,none,0,0,none,0,0,2,yes,YES (R),1223,SAMPLE MODE 2;- sound only,../Data/raw_data/Testing//MTS_2020_07_21_01_13_54.csv,29,1,Knife_01.jpg_Popsicle_01.jpg,2,129,regular,"NA"
none,Phone.wav,none,0,0,Phone_02.jpg,1,1,Peas_02.jpg,2,2,none,0,0,none,0,0,none,0,0,2,yes,YES (R),1187,SAMPLE MODE 2 -;sound only,../Data/raw_data/Testing//MTS_2020_07_21_01_13_54.csv,30,1,Phone_02.jpg_Peas_02.jpg,2,130,regular,"NA"
none,Elikya.wav,none,0,0,Elikya_01.jpg,1,1,Blackberries_02.jpg,2,3,none,0,0,none,0,0,none,0,0,2,yes,YES (R),1238,SAMPLE MO;DE 2 - sound only,../Data/raw_data/Testing//MTS_2020_07_21_01_13_54.csv,31,1,Elikya_01.jpg_Blackberries_02.jpg,2,131,regular,"NA"
none,Juice.wav,none,0,0,Juice_02.jpg,1,1,Bread_01.jpg,3,3,none,0,0,none,0,0,none,0,0,2,yes,YES (R),1088,SAMPLE MODE 2;- sound only,../Data/raw_data/Testing//MTS_2020_07_21_01_13_54.csv,32,1,Juice_02.jpg_Bread_01.jpg,2,132,regular,"NA"
none,Noodles.wav,none,0,0,Noodles_02.jpg,3,1,Grapes_02.jpg,1,2,none,0,0,none,0,0,none,0,0,2,yes,YES (R),1398,SAMPLE MODE;2 - sound only,../Data/raw_data/Testing//MTS_2020_07_21_01_13_54.csv,33,1,Noodles_02.jpg_Grapes_02.jpg,2,133,regular,"NA"
none,zeze.wav,none,0,0,Eshape.jpg,3,2,RSlide26.jpg,2,3,none,0,0,none,0,0,none,0,0,2,no,NO,1126,SAMPLE MODE;2 - sound only,../Data/raw_data/Testing//MTS_2020_07_21_01_13_54.csv,34,0,Eshape.jpg_RSlide26.jpg,2,134,test,edgy
none,Sugar Cane.wav,none,0,0,Sugar Cane_01.jpg,2,1,Bowl_02.jpg,1,3,none,0,0,none,0,0,none,0,0,2,yes,YES (R),1231,SAMPLE MODE 2 - sou;nd only,../Data/raw_data/Testing//MTS_2020_07_21_01_13_54.csv,35,1,Sugar Cane_01.jpg_Bowl_02.jpg,2,135,regular,"NA"
none,Squirrel.wav,none,0,0,Squirrel_02.jpg,2,1,Melon_02.jpg,3,3,none,0,0,none,0,0,none,0,0,2,yes,YES (R),1182,SAMPLE MODE;2 - sound only,../Data/raw_data/Testing//MTS_2020_07_21_01_13_54.csv,36,1,Squirrel_02.jpg_Melon_02.jpg,2,136,regular,"NA"
none,Tummy.wav,none,0,0,Tummy_01.jpg,3,2,Bowl_01.jpg,2,3,none,0,0,none,0,0,none,0,0,2,yes,YES,1536,SAMPLE MODE 2 - sound only,../Data/raw_data/Testing//MTS_2020_07_21_01_13_54.csv,37,1,Tummy_01.jpg_Bowl_01.jpg,2,137,regular,"NA"
none,Melon.wav,none,0,0,Melon_01.jpg,1,1,Trash_02.jpg,3,2,none,0,0,none,0,0,none,0,0,2,yes,YES (R),3024,SAMPLE MODE 2;- sound only,../Data/raw_data/Testing//MTS_2020_07_21_01_13_54.csv,38,1,Melon_01.jpg_Trash_02.jpg,2,138,regular,"NA"
none,Nyota.wav,none,0,0,Nyota_02.jpg,3,1,Apple_02.jpg,1,2,none,0,0,none,0,0,none,0,0,2,yes,YES (R),1310,SAMPLE MOD;E 2 - sound only,../Data/raw_data/Testing//MTS_2020_07_21_01_13_54.csv,39,1,Nyota_02.jpg_Apple_02.jpg,2,139,regular,"NA"
none,Mouth.wav,none,0,0,Mouth_02.jpg,1,3,Milk_02.jpg,2,2,none,0,0,none,0,0,none,0,0,2,yes,NO,1697,SAMPLE M;ODE 2 - sound only,../Data/raw_data/Testing//MTS_2020_07_21_01_13_54.csv,40,0,Mouth_02.jpg_Milk_02.jpg,2,140,regular,"NA"
none,Stick.wav,none,0,0,Stick_02.jpg,3,2,Peanut_01.jpg,1,1,none,0,0,none,0,0,none,0,0,2,yes,YES (R),931,SAMPLE MODE;2 - sound only,../Data/raw_data/Testing//MTS_2020_07_21_01_13_54.csv,41,1,Stick_02.jpg_Peanut_01.jpg,2,141,regular,"NA"
none,Orange.wav,none,0,0,Orange_02.jpg,1,3,Blueberry_01.jpg,2,1,none,0,0,none,0,0,none,0,0,2,yes,YES (R),1296,SAMPLE MODE 2;- sound only,../Data/raw_data/Testing//MTS_2020_07_21_01_13_54.csv,42,1,Orange_02.jpg_Blueberry_01.jpg,2,142,regular,"NA"
none,Spoon.wav,none,0,0,Spoon_01.jpg,1,3,Mushroom_01.jpg,3,1,none,0,0,none,0,0,none,0,0,2,yes,YES (R),1884,SAMPLE MODE;2 - sound only,../Data/raw_data/Testing//MTS_2020_07_21_01_13_54.csv,43,1,Spoon_01.jpg_Mushroom_01.jpg,2,143,regular,"NA"
none,Yogurt.wav,none,0,0,Yogurt_01.jpg,1,2,Cereal_01.jpg,2,3,none,0,0,none,0,0,none,0,0,2,yes,YES (R),1860,SAMPLE MO;DE 2 - sound only,../Data/raw_data/Testing//MTS_2020_07_21_01_13_54.csv,44,1,Yogurt_01.jpg_Cereal_01.jpg,2,144,regular,"NA"
none,Pineapple.wav,none,0,0,Pineapple_02.jpg,3,3,Strawberries_01.jpg,1,2,none,0,0,none,0,0,none,0,0,2,yes,YES (R),1189,SAMPLE MODE 2 - sou;nd only,../Data/raw_data/Testing//MTS_2020_07_21_01_13_54.csv,45,1,Pineapple_02.jpg_Strawberries_01.jpg,2,145,regular,"NA"
none,Fire.wav,none,0,0,Fire_02.jpg,3,1,Orange_02.jpg,2,2,none,0,0,none,0,0,none,0,0,2,yes,YES (R),1096,SAMPLE M;ODE 2 - sound only,../Data/raw_data/Testing//MTS_2020_07_21_01_13_54.csv,46,1,Fire_02.jpg_Orange_02.jpg,2,146,regular,"NA"
none,Wipies.wav,none,0,0,Wipies_01.jpg,3,1,Peas_01.jpg,2,2,none,0,0,none,0,0,none,0,0,2,yes,YES,1655,SAMPLE MODE 2 - s;ound only,../Data/raw_data/Testing//MTS_2020_07_21_01_13_54.csv,47,1,Wipies_01.jpg_Peas_01.jpg,2,147,regular,"NA"
none,gugu.wav,none,0,0,RSlide37.jpg,2,1,ESlide8.jpg,1,3,none,0,0,none,0,0,none,0,0,2,no,YES,1218,SAMPLE MODE;2 - sound only,../Data/raw_data/Testing//MTS_2020_07_21_01_13_54.csv,48,1,RSlide37.jpg_ESlide8.jpg,2,148,test,round
none,Ice.wav,none,0,0,Ice_01.jpg,2,3,Potato_02.jpg,1,1,none,0,0,none,0,0,none,0,0,2,yes,YES,1755,;SAMPLE MODE 2 - sound only,../Data/raw_data/Testing//MTS_2020_07_21_01_13_54.csv,49,1,Ice_01.jpg_Potato_02.jpg,2,149,regular,"NA"
none,Bunny.wav,none,0,0,Bunny_01.jpg,3,3,Juice_01.jpg,1,2,none,0,0,none,0,0,none,0,0,2,yes,YES,1233,SAMPLE MO;DE 2 - sound only,../Data/raw_data/Testing//MTS_2020_07_21_01_13_54.csv,50,1,Bunny_01.jpg_Juice_01.jpg,2,150,regular,"NA"
none,Vitamin.wav,none,0,0,Vitamin_01.jpg,1,1,Brush_02.jpg,2,3,none,0,0,none,0,0,none,0,0,2,yes,YES,2026,SAMP;LE MODE 2 - sound only,../Data/raw_data/Testing//MTS_2020_07_21_01_13_54.csv,51,1,Vitamin_01.jpg_Brush_02.jpg,2,151,regular,"NA"
none,Lettuce.wav,none,0,0,Lettuce_02.jpg,1,3,Rock_01.jpg,2,1,none,0,0,none,0,0,none,0,0,2,yes,NO,1939,SAMPL;E MODE 2 - sound only,../Data/raw_data/Testing//MTS_2020_07_21_01_13_54.csv,52,0,Lettuce_02.jpg_Rock_01.jpg,2,152,regular,"NA"
none,Dog.wav,none,0,0,Dog_02.jpg,3,2,Melon_01.jpg,2,3,none,0,0,none,0,0,none,0,0,2,yes,YES (R),1442,SAMPLE MODE 2 - so;und only,../Data/raw_data/Testing//MTS_2020_07_21_01_13_54.csv,53,1,Dog_02.jpg_Melon_01.jpg,2,153,regular,"NA"
none,Toothbrush.wav,none,0,0,Toothbrush_01.jpg,3,2,Mouth_01.jpg,1,1,none,0,0,none,0,0,none,0,0,2,yes,YES,3116,SAMPLE MODE 2 - s;ound only,../Data/raw_data/Testing//MTS_2020_07_21_01_13_54.csv,54,1,Toothbrush_01.jpg_Mouth_01.jpg,2,154,regular,"NA"
none,Teco.wav,none,0,0,Teco_01.jpg,1,2,Noodles_01.jpg,3,1,none,0,0,none,0,0,none,0,0,2,yes,YES (R),1315,SAMPLE MODE;2 - sound only,../Data/raw_data/Testing//MTS_2020_07_21_01_13_54.csv,55,1,Teco_01.jpg_Noodles_01.jpg,2,155,regular,"NA"
none,Banana.wav,none,0,0,Banana_01.jpg,3,1,Orange_01.jpg,1,3,none,0,0,none,0,0,none,0,0,2,yes,YES (R),934,SAMPLE MODE 2 -;sound only,../Data/raw_data/Testing//MTS_2020_07_21_01_13_54.csv,56,1,Banana_01.jpg_Orange_01.jpg,2,156,regular,"NA"
none,fefe.wav,none,0,0,ESlide18.jpg,3,1,RSlide21.jpg,2,3,none,0,0,none,0,0,none,0,0,2,no,NO,1131,SAMPLE MODE 2 - so;und only,../Data/raw_data/Testing//MTS_2020_07_21_01_13_54.csv,57,0,ESlide18.jpg_RSlide21.jpg,2,157,test,edgy
none,Coconut.wav,none,0,0,Coconut_01.jpg,3,2,Stick_02.jpg,1,3,none,0,0,none,0,0,none,0,0,2,yes,YES (R),1034,SAMP;LE MODE 2 - sound only,../Data/raw_data/Testing//MTS_2020_07_21_01_13_54.csv,58,1,Coconut_01.jpg_Stick_02.jpg,2,158,regular,"NA"
none,Mouth.wav,none,0,0,Mouth_01.jpg,2,3,Bunny_02.jpg,1,2,none,0,0,none,0,0,none,0,0,2,yes,NO,1314,SAMPLE MODE 2 - s;ound only,../Data/raw_data/Testing//MTS_2020_07_21_01_13_54.csv,59,0,Mouth_01.jpg_Bunny_02.jpg,2,159,regular,"NA"
none,Lemon.wav,none,0,0,Lemon_01.jpg,3,3,Camera_02.jpg,1,1,none,0,0,none,0,0,none,0,0,2,yes,NO,1556,S;AMPLE MODE 2 - sound only,../Data/raw_data/Testing//MTS_2020_07_21_01_13_54.csv,60,0,Lemon_01.jpg_Camera_02.jpg,2,160,regular,"NA"
none,Kanzi.wav,none,0,0,Kanzi_01.jpg,3,2,Pinecone_01.jpg,2,1,none,0,0,none,0,0,none,0,0,2,yes,YES,1101,SAMPLE MODE 2;- sound only,../Data/raw_data/Testing//MTS_2020_07_21_01_13_54.csv,61,1,Kanzi_01.jpg_Pinecone_01.jpg,2,161,regular,"NA"
none,Onion.wav,none,0,0,Onion_01.jpg,3,3,Dog_02.jpg,2,1,none,0,0,none,0,0,none,0,0,2,yes,NO,2054,SAMPLE MODE 2 - so;und only,../Data/raw_data/Testing//MTS_2020_07_21_01_13_54.csv,62,0,Onion_01.jpg_Dog_02.jpg,2,162,regular,"NA"
none,Noodles.wav,none,0,0,Noodles_01.jpg,2,1,Elikya_02.jpg,1,2,none,0,0,none,0,0,none,0,0,2,yes,YES,1099,SAMPLE MODE;2 - sound only,../Data/raw_data/Testing//MTS_2020_07_21_01_13_54.csv,63,1,Noodles_01.jpg_Elikya_02.jpg,2,163,regular,"NA"
none,Bread.wav,none,0,0,Bread_02.jpg,1,2,Groom_01.jpg,3,1,none,0,0,none,0,0,none,0,0,2,yes,NO,1077,SAMPLE MODE 2 -;sound only,../Data/raw_data/Testing//MTS_2020_07_21_01_13_54.csv,64,0,Bread_02.jpg_Groom_01.jpg,2,164,regular,"NA"
none,Grapes.wav,none,0,0,Grapes_01.jpg,3,3,Shirt_01.jpg,1,1,none,0,0,none,0,0,none,0,0,2,yes,YES (R),1204,SAMPLE MODE;2 - sound only,../Data/raw_data/Testing//MTS_2020_07_21_01_13_54.csv,65,1,Grapes_01.jpg_Shirt_01.jpg,2,165,regular,"NA"
none,Cereal.wav,none,0,0,Cereal_02.jpg,2,2,Lighter_01.jpg,3,1,none,0,0,none,0,0,none,0,0,2,yes,YES (R),1060,SAMPLE MODE 2;- sound only,../Data/raw_data/Testing//MTS_2020_07_21_01_13_54.csv,66,1,Cereal_02.jpg_Lighter_01.jpg,2,166,regular,"NA"
none,Bird.wav,none,0,0,Bird_02.jpg,2,2,String_01.jpg,1,1,none,0,0,none,0,0,none,0,0,2,yes,YES (R),1341,SAMPLE MODE 2 -;sound only,../Data/raw_data/Testing//MTS_2020_07_21_01_13_54.csv,67,1,Bird_02.jpg_String_01.jpg,2,167,regular,"NA"
none,Celery.wav,none,0,0,Celery_02.jpg,2,3,Hose_02.jpg,3,1,none,0,0,none,0,0,none,0,0,2,yes,YES,1609,SAMPLE M;ODE 2 - sound only,../Data/raw_data/Testing//MTS_2020_07_21_01_13_54.csv,68,1,Celery_02.jpg_Hose_02.jpg,2,168,regular,"NA"
none,mumu.wav,none,0,0,RSlide2.jpg,1,2,ESlide34.jpg,2,3,none,0,0,none,0,0,none,0,0,2,no,YES,1247,SAMPLE MODE 2 - sou;nd only,../Data/raw_data/Testing//MTS_2020_07_21_01_13_54.csv,69,1,RSlide2.jpg_ESlide34.jpg,2,169,test,round
none,Popsicle.wav,none,0,0,Popsicle_02.jpg,1,1,Toothbrush_01.jpg,3,2,none,0,0,none,0,0,none,0,0,2,yes,YES (R),1348,SAM;PLE MODE 2 - sound only,../Data/raw_data/Testing//MTS_2020_07_21_01_13_54.csv,70,1,Popsicle_02.jpg_Toothbrush_01.jpg,2,170,regular,"NA"
none,Bowl.wav,none,0,0,Bowl_02.jpg,1,2,Watermelon_02.jpg,3,1,none,0,0,none,0,0,none,0,0,2,yes,YES,1349,SAMPLE MODE 2 -;sound only,../Data/raw_data/Testing//MTS_2020_07_21_01_13_54.csv,71,1,Bowl_02.jpg_Watermelon_02.jpg,2,171,regular,"NA"
none,Peanut.wav,none,0,0,Peanut_02.jpg,1,2,Phone_01.jpg,2,1,none,0,0,none,0,0,none,0,0,2,yes,YES (R),1081,SAMPLE MODE;2 - sound only,../Data/raw_data/Testing//MTS_2020_07_21_01_13_54.csv,72,1,Peanut_02.jpg_Phone_01.jpg,2,172,regular,"NA"
none,Bowl.wav,none,0,0,Bowl_01.jpg,1,1,Sweet Potato_02.jpg,2,2,none,0,0,none,0,0,none,0,0,2,yes,YES (R),1416,SAMPLE M;ODE 2 - sound only,../Data/raw_data/Testing//MTS_2020_07_21_01_13_54.csv,73,1,Bowl_01.jpg_Sweet Potato_02.jpg,2,173,regular,"NA"
none,Hose.wav,none,0,0,Hose_01.jpg,1,1,String_02.jpg,3,2,none,0,0,none,0,0,none,0,0,2,yes,YES (R),1464,SAMPLE MODE 2;- sound only,../Data/raw_data/Testing//MTS_2020_07_21_01_13_54.csv,74,1,Hose_01.jpg_String_02.jpg,2,174,regular,"NA"
none,kiki.wav,none,0,0,Eshape4.jpg,1,2,RSlide27.jpg,2,3,none,0,0,none,0,0,none,0,0,2,no,NO,1204,SAMPLE MOD;E 2 - sound only,../Data/raw_data/Testing//MTS_2020_07_21_01_13_54.csv,75,0,Eshape4.jpg_RSlide27.jpg,2,175,test,edgy
none,Jelly.wav,none,0,0,Jelly_01.jpg,3,2,Bird_02.jpg,2,3,none,0,0,none,0,0,none,0,0,2,yes,NO,1185,SAMPLE MODE 2 -;sound only,../Data/raw_data/Testing//MTS_2020_07_21_01_13_54.csv,76,0,Jelly_01.jpg_Bird_02.jpg,2,176,regular,"NA"
none,Elikya.wav,none,0,0,Elikya_02.jpg,1,2,Mushroom_02.jpg,2,1,none,0,0,none,0,0,none,0,0,2,yes,YES,1432,SAMPLE MODE 2;- sound only,../Data/raw_data/Testing//MTS_2020_07_21_01_13_54.csv,77,1,Elikya_02.jpg_Mushroom_02.jpg,2,177,regular,"NA"
none,Trash.wav,none,0,0,Trash_02.jpg,3,3,Mouth_02.jpg,1,2,none,0,0,none,0,0,none,0,0,2,yes,NO,1323,SAMPLE MODE 2 - s;ound only,../Data/raw_data/Testing//MTS_2020_07_21_01_13_54.csv,78,0,Trash_02.jpg_Mouth_02.jpg,2,178,regular,"NA"
none,Carrot.wav,none,0,0,Carrot_02.jpg,2,3,Hat_02.jpg,3,1,none,0,0,none,0,0,none,0,0,2,yes,NO,1567,S;AMPLE MODE 2 - sound only,../Data/raw_data/Testing//MTS_2020_07_21_01_13_54.csv,79,0,Carrot_02.jpg_Hat_02.jpg,2,179,regular,"NA"
none,Cheese.wav,none,0,0,Cheese_02.jpg,2,1,Orangutan_01.jpg,3,2,none,0,0,none,0,0,none,0,0,2,yes,NO,1186,SAMPLE MOD;E 2 - sound only,../Data/raw_data/Testing//MTS_2020_07_21_01_13_54.csv,80,0,Cheese_02.jpg_Orangutan_01.jpg,2,180,regular,"NA"
none,Potato.wav,none,0,0,Potato_02.jpg,2,2,Tummy_02.jpg,3,1,none,0,0,none,0,0,none,0,0,2,yes,YES (R),1302,SAMPLE MODE 2;- sound only,../Data/raw_data/Testing//MTS_2020_07_21_01_13_54.csv,81,1,Potato_02.jpg_Tummy_02.jpg,2,181,regular,"NA"
none,Tomato.wav,none,0,0,Tomato_02.jpg,3,2,Pear_02.jpg,2,1,none,0,0,none,0,0,none,0,0,2,yes,NO,1531,SAMPLE MODE;2 - sound only,../Data/raw_data/Testing//MTS_2020_07_21_01_13_54.csv,82,0,Tomato_02.jpg_Pear_02.jpg,2,182,regular,"NA"
none,Squirrel.wav,none,0,0,Squirrel_01.jpg,1,1,Tomato_02.jpg,3,2,none,0,0,none,0,0,none,0,0,2,yes,YES,1513,SAMPLE M;ODE 2 - sound only,../Data/raw_data/Testing//MTS_2020_07_21_01_13_54.csv,83,1,Squirrel_01.jpg_Tomato_02.jpg,2,183,regular,"NA"
none,Popsicle.wav,none,0,0,Popsicle_01.jpg,2,1,Bug_01.jpg,3,2,none,0,0,none,0,0,none,0,0,2,yes,YES (R),1137,SAMPLE MODE 2 - sound;only,../Data/raw_data/Testing//MTS_2020_07_21_01_13_54.csv,84,1,Popsicle_01.jpg_Bug_01.jpg,2,184,regular,"NA"
none,Groom.wav,none,0,0,Groom_02.jpg,1,1,Teco_01.jpg,2,2,none,0,0,none,0,0,none,0,0,2,yes,YES,1425,SAMPLE;MODE 2 - sound only,../Data/raw_data/Testing//MTS_2020_07_21_01_13_54.csv,85,1,Groom_02.jpg_Teco_01.jpg,2,185,regular,"NA"
none,Green Bean.wav,none,0,0,Green Bean_02.jpg,3,1,Shoe_01.jpg,2,3,none,0,0,none,0,0,none,0,0,2,yes,YES (R),1327,SAMPLE MODE 2 -;sound only,../Data/raw_data/Testing//MTS_2020_07_21_01_13_54.csv,86,1,Green Bean_02.jpg_Shoe_01.jpg,2,186,regular,"NA"
none,nunu.wav,none,0,0,RSlide9.jpg,3,3,ESlide46.jpg,1,2,none,0,0,none,0,0,none,0,0,2,no,NO,1186,SAMPLE MODE 2 - so;und only,../Data/raw_data/Testing//MTS_2020_07_21_01_13_54.csv,87,0,RSlide9.jpg_ESlide46.jpg,2,187,test,round
none,Coconut.wav,none,0,0,Coconut_02.jpg,1,1,Foot_01.jpg,3,2,none,0,0,none,0,0,none,0,0,2,yes,YES,1191,SAMPLE MODE 2 -;sound only,../Data/raw_data/Testing//MTS_2020_07_21_01_13_54.csv,88,1,Coconut_02.jpg_Foot_01.jpg,2,188,regular,"NA"
none,Watermelon.wav,none,0,0,Watermelon_01.jpg,3,1,Grapes_01.jpg,1,3,none,0,0,none,0,0,none,0,0,2,yes,YES (R),2112,SAM;PLE MODE 2 - sound only,../Data/raw_data/Testing//MTS_2020_07_21_01_13_54.csv,89,1,Watermelon_01.jpg_Grapes_01.jpg,2,189,regular,"NA"
none,Celery.wav,none,0,0,Celery_01.jpg,2,1,Banana_02.jpg,1,2,none,0,0,none,0,0,none,0,0,2,yes,YES (R),1156,SAMPLE MODE 2 - sou;nd only,../Data/raw_data/Testing//MTS_2020_07_21_01_13_54.csv,90,1,Celery_01.jpg_Banana_02.jpg,2,190,regular,"NA"
none,Pear.wav,none,0,0,Pear_01.jpg,3,3,Cereal_02.jpg,1,2,none,0,0,none,0,0,none,0,0,2,yes,YES (R),2350,SAMPLE MODE 2 - sound only,../Data/raw_data/Testing//MTS_2020_07_21_01_13_54.csv,91,1,Pear_01.jpg_Cereal_02.jpg,2,191,regular,"NA"
none,Hand.wav,none,0,0,Hand_02.jpg,2,3,Apricot_02.jpg,1,1,none,0,0,none,0,0,none,0,0,2,yes,YES (R),1841,SAMPLE;MODE 2 - sound only,../Data/raw_data/Testing//MTS_2020_07_21_01_13_54.csv,92,1,Hand_02.jpg_Apricot_02.jpg,2,192,regular,"NA"
none,Fish.wav,none,0,0,Fish_02.jpg,2,2,Noodles_02.jpg,3,1,none,0,0,none,0,0,none,0,0,2,yes,YES,1883,SAMPLE MODE 2 -;sound only,../Data/raw_data/Testing//MTS_2020_07_21_01_13_54.csv,93,1,Fish_02.jpg_Noodles_02.jpg,2,193,regular,"NA"
none,Hand.wav,none,0,0,Hand_01.jpg,2,1,Bunny_01.jpg,1,3,none,0,0,none,0,0,none,0,0,2,yes,NO,1297,SAMPLE MODE 2 -;sound only,../Data/raw_data/Testing//MTS_2020_07_21_01_13_54.csv,94,0,Hand_01.jpg_Bunny_01.jpg,2,194,regular,"NA"
none,Potato.wav,none,0,0,Potato_01.jpg,2,3,Vitamin_02.jpg,3,2,none,0,0,none,0,0,none,0,0,2,yes,YES (R),1511,SAMPLE MODE 2;- sound only,../Data/raw_data/Testing//MTS_2020_07_21_01_13_54.csv,95,1,Potato_01.jpg_Vitamin_02.jpg,2,195,regular,"NA"
none,Matata.wav,none,0,0,Matata_01.jpg,1,3,Cherries_02.jpg,2,2,none,0,0,none,0,0,none,0,0,2,yes,YES (R),1237,SAMPLE;MODE 2 - sound only,../Data/raw_data/Testing//MTS_2020_07_21_01_13_54.csv,96,1,Matata_01.jpg_Cherries_02.jpg,2,196,regular,"NA"
none,momo.wav,none,0,0,Rshape5.jpg,2,1,Eshape3.jpg,1,2,none,0,0,none,0,0,none,0,0,2,no,YES,917,SAMPLE MOD;E 2 - sound only,../Data/raw_data/Testing//MTS_2020_07_21_01_13_54.csv,97,1,Rshape5.jpg_Eshape3.jpg,2,197,test,round
none,Cooler.wav,none,0,0,Cooler_02.jpg,1,2,Stethoscope_02.jpg,2,1,none,0,0,none,0,0,none,0,0,2,yes,YES (R),1358,SAMPLE MODE 2 - s;ound only,../Data/raw_data/Testing//MTS_2020_07_21_01_13_54.csv,98,1,Cooler_02.jpg_Stethoscope_02.jpg,2,198,regular,"NA"
none,Knife.wav,none,0,0,Knife_02.jpg,1,1,Pillow_01.jpg,2,3,none,0,0,none,0,0,none,0,0,2,yes,YES (R),1370,SAMPLE MODE 2 -;sound only,../Data/raw_data/Testing//MTS_2020_07_21_01_13_54.csv,99,1,Knife_02.jpg_Pillow_01.jpg,2,199,regular,"NA"
none,String.wav,none,0,0,String_01.jpg,2,3,Snake_01.jpg,1,1,none,0,0,none,0,0,none,0,0,2,yes,YES (R),980,SAMPLE MO;DE 2 - sound only,../Data/raw_data/Testing//MTS_2020_07_21_01_13_54.csv,100,1,String_01.jpg_Snake_01.jpg,2,200,regular,"NA"
none,Melon.wav,none,0,0,Melon_02.jpg,1,2,Lemon_01.jpg,3,1,none,0,0,none,0,0,none,0,0,2,yes,NO,1512,SAMPLE MODE 2;- sound only,../Data/raw_data/Testing//MTS_2020_07_27_01_11_05.csv,2,0,Melon_02.jpg_Lemon_01.jpg,3,202,regular,"NA"
none,nunu.wav,none,0,0,RSlide9.jpg,3,1,Eshape4.jpg,2,3,none,0,0,none,0,0,none,0,0,2,no,NO,1203,SAMPLE MODE;2 - sound only,../Data/raw_data/Testing//MTS_2020_07_27_01_11_05.csv,3,0,RSlide9.jpg_Eshape4.jpg,3,203,test,round
none,Peaches.wav,none,0,0,Peaches_02.jpg,2,1,Yogurt_02.jpg,1,3,none,0,0,none,0,0,none,0,0,2,yes,YES (R),1348,SA;MPLE MODE 2 - sound only,../Data/raw_data/Testing//MTS_2020_07_27_01_11_05.csv,4,1,Peaches_02.jpg_Yogurt_02.jpg,3,204,regular,"NA"
none,String.wav,none,0,0,String_02.jpg,1,2,Tomato_01.jpg,3,3,none,0,0,none,0,0,none,0,0,2,yes,YES (R),1304,SAMPLE MODE;2 - sound only,../Data/raw_data/Testing//MTS_2020_07_27_01_11_05.csv,5,1,String_02.jpg_Tomato_01.jpg,3,205,regular,"NA"
none,Juice.wav,none,0,0,Juice_01.jpg,2,3,Maisha_01.jpg,3,1,none,0,0,none,0,0,none,0,0,2,yes,YES,1028,SAMPLE MODE 2;- sound only,../Data/raw_data/Testing//MTS_2020_07_27_01_11_05.csv,6,1,Juice_01.jpg_Maisha_01.jpg,3,206,regular,"NA"
none,Banana.wav,none,0,0,Banana_02.jpg,2,3,Gorilla_01.jpg,1,1,none,0,0,none,0,0,none,0,0,2,yes,YES,1235,SAMPLE;MODE 2 - sound only,../Data/raw_data/Testing//MTS_2020_07_27_01_11_05.csv,7,1,Banana_02.jpg_Gorilla_01.jpg,3,207,regular,"NA"
none,Backpack.wav,none,0,0,Backpack_02.jpg,1,2,Wipies_01.jpg,2,1,none,0,0,none,0,0,none,0,0,2,yes,YES (R),2368,SAMPLE;MODE 2 - sound only,../Data/raw_data/Testing//MTS_2020_07_27_01_11_05.csv,8,1,Backpack_02.jpg_Wipies_01.jpg,3,208,regular,"NA"
none,Brush.wav,none,0,0,Brush_02.jpg,1,2,Baby_01.jpg,2,3,none,0,0,none,0,0,none,0,0,2,yes,NO,1115,SAMPLE MODE 2 -;sound only,../Data/raw_data/Testing//MTS_2020_07_27_01_11_05.csv,9,0,Brush_02.jpg_Baby_01.jpg,3,209,regular,"NA"
none,Blackberries.wav,none,0,0,Blackberries_02.jpg,2,1,Cheese_01.jpg,1,3,none,0,0,none,0,0,none,0,0,2,yes,NO,1411,SAMPLE;MODE 2 - sound only,../Data/raw_data/Testing//MTS_2020_07_27_01_11_05.csv,10,0,Blackberries_02.jpg_Cheese_01.jpg,3,210,regular,"NA"
none,Matata.wav,none,0,0,Matata_02.jpg,2,3,Balloon_01.jpg,1,2,none,0,0,none,0,0,none,0,0,2,yes,YES (R),1045,SA;MPLE MODE 2 - sound only,../Data/raw_data/Testing//MTS_2020_07_27_01_11_05.csv,11,1,Matata_02.jpg_Balloon_01.jpg,3,211,regular,"NA"
none,Straw.wav,none,0,0,Straw_01.jpg,2,1,Sweet Potato_01.jpg,1,3,none,0,0,none,0,0,none,0,0,2,yes,YES,1723,SAMPLE MODE 2 - so;und only,../Data/raw_data/Testing//MTS_2020_07_27_01_11_05.csv,12,1,Straw_01.jpg_Sweet Potato_01.jpg,3,212,regular,"NA"
none,Carrot.wav,none,0,0,Carrot_01.jpg,2,2,Blanket_02.jpg,1,1,none,0,0,none,0,0,none,0,0,2,yes,NO,1096,SAMPLE MOD;E 2 - sound only,../Data/raw_data/Testing//MTS_2020_07_27_01_11_05.csv,13,0,Carrot_01.jpg_Blanket_02.jpg,3,213,regular,"NA"
none,Bubbles.wav,none,0,0,Bubbles_02.jpg,2,2,Brush_01.jpg,1,1,none,0,0,none,0,0,none,0,0,2,yes,YES (R),1272,SAMP;LE MODE 2 - sound only,../Data/raw_data/Testing//MTS_2020_07_27_01_11_05.csv,14,1,Bubbles_02.jpg_Brush_01.jpg,3,214,regular,"NA"
none,Brush.wav,none,0,0,Brush_01.jpg,2,2,Blueberry_02.jpg,1,1,none,0,0,none,0,0,none,0,0,2,yes,YES (R),1672,SAMPL;E MODE 2 - sound only,../Data/raw_data/Testing//MTS_2020_07_27_01_11_05.csv,15,1,Brush_01.jpg_Blueberry_02.jpg,3,215,regular,"NA"
none,Blanket.wav,none,0,0,Blanket_02.jpg,3,2,Ear_01.jpg,2,3,none,0,0,none,0,0,none,0,0,2,yes,YES (R),2220,SAMPLE;MODE 2 - sound only,../Data/raw_data/Testing//MTS_2020_07_27_01_11_05.csv,16,1,Blanket_02.jpg_Ear_01.jpg,3,216,regular,"NA"
none,Kanzi.wav,none,0,0,Kanzi_02.jpg,3,1,Potato_01.jpg,2,2,none,0,0,none,0,0,none,0,0,2,yes,YES (R),1220,SAMPLE MODE;2 - sound only,../Data/raw_data/Testing//MTS_2020_07_27_01_11_05.csv,17,1,Kanzi_02.jpg_Potato_01.jpg,3,217,regular,"NA"
none,Pillow.wav,none,0,0,Pillow_02.jpg,1,3,Water_01.jpg,3,2,none,0,0,none,0,0,none,0,0,2,yes,YES (R),1751,SAMPLE MODE 2 - s;ound only,../Data/raw_data/Testing//MTS_2020_07_27_01_11_05.csv,18,1,Pillow_02.jpg_Water_01.jpg,3,218,regular,"NA"
none,zeze.wav,none,0,0,Eshape.jpg,3,1,RSlide33.jpg,2,2,none,0,0,none,0,0,none,0,0,2,no,YES,1155,SAMPLE;MODE 2 - sound only,../Data/raw_data/Testing//MTS_2020_07_27_01_11_05.csv,19,1,Eshape.jpg_RSlide33.jpg,3,219,test,edgy
none,Lemon.wav,none,0,0,Lemon_02.jpg,3,2,Milk_01.jpg,1,1,none,0,0,none,0,0,none,0,0,2,yes,YES (R),3523,SAMPLE MOD;E 2 - sound only,../Data/raw_data/Testing//MTS_2020_07_27_01_11_05.csv,20,1,Lemon_02.jpg_Milk_01.jpg,3,220,regular,"NA"
none,Tv.wav,none,0,0,Tv_01.jpg,1,3,Yogurt_01.jpg,2,1,none,0,0,none,0,0,none,0,0,2,yes,YES (R),1804,SAMPLE MODE 2 -;sound only,../Data/raw_data/Testing//MTS_2020_07_27_01_11_05.csv,21,1,Tv_01.jpg_Yogurt_01.jpg,3,221,regular,"NA"
none,Rock.wav,none,0,0,Rock_02.jpg,1,2,Popsicle_02.jpg,3,3,none,0,0,none,0,0,none,0,0,2,yes,YES (R),1632,SAMPLE;MODE 2 - sound only,../Data/raw_data/Testing//MTS_2020_07_27_01_11_05.csv,22,1,Rock_02.jpg_Popsicle_02.jpg,3,222,regular,"NA"
none,Apricot.wav,none,0,0,Apricot_01.jpg,1,1,Sugar Cane_02.jpg,3,3,none,0,0,none,0,0,none,0,0,2,yes,NO,1155,SAMPLE M;ODE 2 - sound only,../Data/raw_data/Testing//MTS_2020_07_27_01_11_05.csv,23,0,Apricot_01.jpg_Sugar Cane_02.jpg,3,223,regular,"NA"
none,Egg.wav,none,0,0,Egg_01.jpg,1,1,Cooler_01.jpg,3,3,none,0,0,none,0,0,none,0,0,2,yes,YES (R),1563,SAMPLE MODE 2 - s;ound only,../Data/raw_data/Testing//MTS_2020_07_27_01_11_05.csv,24,1,Egg_01.jpg_Cooler_01.jpg,3,224,regular,"NA"
none,Phone.wav,none,0,0,Phone_02.jpg,1,1,Peas_02.jpg,2,2,none,0,0,none,0,0,none,0,0,2,yes,YES,1939,SAMPLE MODE;2 - sound only,../Data/raw_data/Testing//MTS_2020_07_27_01_11_05.csv,25,1,Phone_02.jpg_Peas_02.jpg,3,225,regular,"NA"
none,sese.wav,none,0,0,ESlide18.jpg,1,2,Rshape5.jpg,3,1,none,0,0,none,0,0,none,0,0,2,no,YES,1028,SAMPLE MODE;2 - sound only,../Data/raw_data/Testing//MTS_2020_07_27_01_11_05.csv,26,1,ESlide18.jpg_Rshape5.jpg,3,226,test,edgy
none,Stethoscope.wav,none,0,0,Stethoscope_01.jpg,3,2,Mushroom_02.jpg,1,3,none,0,0,none,0,0,none,0,0,2,yes,YES (R),1496,SAMPLE MOD;E 2 - sound only,../Data/raw_data/Testing//MTS_2020_07_27_01_11_05.csv,27,1,Stethoscope_01.jpg_Mushroom_02.jpg,3,227,regular,"NA"
none,Tea.wav,none,0,0,Tea_02.jpg,2,3,Pinecone_02.jpg,3,1,none,0,0,none,0,0,none,0,0,2,yes,YES (R),1079,SAMPLE M;ODE 2 - sound only,../Data/raw_data/Testing//MTS_2020_07_27_01_11_05.csv,28,1,Tea_02.jpg_Pinecone_02.jpg,3,228,regular,"NA"
none,Kanzi.wav,none,0,0,Kanzi_02.jpg,3,1,Car_01.jpg,1,3,none,0,0,none,0,0,none,0,0,2,yes,YES (R),963,SAMPLE MODE;2 - sound only,../Data/raw_data/Testing//MTS_2020_07_27_01_11_05.csv,29,1,Kanzi_02.jpg_Car_01.jpg,3,229,regular,"NA"
none,Watermelon.wav,none,0,0,Watermelon_02.jpg,2,2,Stethoscope_01.jpg,3,1,none,0,0,none,0,0,none,0,0,2,yes,NO,852,SAMPLE MODE 2;- sound only,../Data/raw_data/Testing//MTS_2020_07_27_01_11_05.csv,30,0,Watermelon_02.jpg_Stethoscope_01.jpg,3,230,regular,"NA"
none,Shirt.wav,none,0,0,Shirt_02.jpg,3,1,Maisha_01.jpg,1,3,none,0,0,none,0,0,none,0,0,2,yes,NO,2499,SAMPLE;MODE 2 - sound only,../Data/raw_data/Testing//MTS_2020_07_27_01_11_05.csv,31,0,Shirt_02.jpg_Maisha_01.jpg,3,231,regular,"NA"
none,Backpack.wav,none,0,0,Backpack_01.jpg,2,2,Balloon_01.jpg,1,1,none,0,0,none,0,0,none,0,0,2,yes,YES (R),1807,SA;MPLE MODE 2 - sound only,../Data/raw_data/Testing//MTS_2020_07_27_01_11_05.csv,32,1,Backpack_01.jpg_Balloon_01.jpg,3,232,regular,"NA"
none,dodo.wav,none,0,0,RSlide17.jpg,2,1,ESlide22.jpg,1,3,none,0,0,none,0,0,none,0,0,2,no,YES,1184,SAM;PLE MODE 2 - sound only,../Data/raw_data/Testing//MTS_2020_07_27_01_11_05.csv,33,1,RSlide17.jpg_ESlide22.jpg,3,233,test,round
none,Tea.wav,none,0,0,Tea_01.jpg,1,3,Grapes_02.jpg,2,1,none,0,0,none,0,0,none,0,0,2,yes,YES (R),1563,SAMPLE MODE;2 - sound only,../Data/raw_data/Testing//MTS_2020_07_27_01_11_05.csv,34,1,Tea_01.jpg_Grapes_02.jpg,3,234,regular,"NA"
none,Coconut.wav,none,0,0,Coconut_02.jpg,2,3,Toothbrush_02.jpg,1,2,none,0,0,none,0,0,none,0,0,2,yes,YES (R),1551,SAMPLE MODE 2 - sound only,../Data/raw_data/Testing//MTS_2020_07_27_01_11_05.csv,35,1,Coconut_02.jpg_Toothbrush_02.jpg,3,235,regular,"NA"
none,Mushroom.wav,none,0,0,Mushroom_01.jpg,1,2,Kanzi_01.jpg,3,3,none,0,0,none,0,0,none,0,0,2,yes,YES,1384,SAMPLE MODE 2 - s;ound only,../Data/raw_data/Testing//MTS_2020_07_27_01_11_05.csv,36,1,Mushroom_01.jpg_Kanzi_01.jpg,3,236,regular,"NA"
none,Tomato.wav,none,0,0,Tomato_01.jpg,2,2,Blanket_02.jpg,3,1,none,0,0,none,0,0,none,0,0,2,yes,YES (R),1811,SAMPLE MO;DE 2 - sound only,../Data/raw_data/Testing//MTS_2020_07_27_01_11_05.csv,37,1,Tomato_01.jpg_Blanket_02.jpg,3,237,regular,"NA"
none,Lighter.wav,none,0,0,Lighter_02.jpg,3,3,Fish_02.jpg,1,1,none,0,0,none,0,0,none,0,0,2,yes,YES,2155,SAMPL;E MODE 2 - sound only,../Data/raw_data/Testing//MTS_2020_07_27_01_11_05.csv,38,1,Lighter_02.jpg_Fish_02.jpg,3,238,regular,"NA"
none,Camera.wav,none,0,0,Camera_02.jpg,1,3,Ice_02.jpg,2,2,none,0,0,none,0,0,none,0,0,2,yes,NO,6392,SAMPLE MODE;2 - sound only,../Data/raw_data/Testing//MTS_2020_07_27_01_11_05.csv,39,0,Camera_02.jpg_Ice_02.jpg,3,239,regular,"NA"
none,Peaches.wav,none,0,0,Peaches_02.jpg,2,3,Tomato_01.jpg,3,2,none,0,0,none,0,0,none,0,0,2,yes,YES,1284,SAMPLE M;ODE 2 - sound only,../Data/raw_data/Testing//MTS_2020_07_27_01_11_05.csv,40,1,Peaches_02.jpg_Tomato_01.jpg,3,240,regular,"NA"
none,Stick.wav,none,0,0,Stick_01.jpg,1,1,Straw_01.jpg,3,2,none,0,0,none,0,0,none,0,0,2,yes,YES,1087,SA;MPLE MODE 2 - sound only,../Data/raw_data/Testing//MTS_2020_07_27_01_11_05.csv,41,1,Stick_01.jpg_Straw_01.jpg,3,241,regular,"NA"
none,Bird.wav,none,0,0,Bird_02.jpg,1,2,Cheese_02.jpg,2,1,none,0,0,none,0,0,none,0,0,2,yes,YES,1668,SAMPLE;MODE 2 - sound only,../Data/raw_data/Testing//MTS_2020_07_27_01_11_05.csv,42,1,Bird_02.jpg_Cheese_02.jpg,3,242,regular,"NA"
none,fefe.wav,none,0,0,ESlide8.jpg,3,2,RSlide2.jpg,1,1,none,0,0,none,0,0,none,0,0,2,no,YES,1160,SAMPLE MODE 2 -;sound only,../Data/raw_data/Testing//MTS_2020_07_27_01_11_05.csv,43,1,ESlide8.jpg_RSlide2.jpg,3,243,test,edgy
none,Tv.wav,none,0,0,Tv_01.jpg,1,1,Sweet Potato_02.jpg,3,2,none,0,0,none,0,0,none,0,0,2,yes,YES (R),2428,SAMPLE;MODE 2 - sound only,../Data/raw_data/Testing//MTS_2020_07_27_01_11_05.csv,44,1,Tv_01.jpg_Sweet Potato_02.jpg,3,244,regular,"NA"
none,Cooler.wav,none,0,0,Cooler_01.jpg,2,1,Pillow_01.jpg,3,2,none,0,0,none,0,0,none,0,0,2,yes,YES (R),1227,;SAMPLE MODE 2 - sound only,../Data/raw_data/Testing//MTS_2020_07_27_01_11_05.csv,45,1,Cooler_01.jpg_Pillow_01.jpg,3,245,regular,"NA"
none,Bug.wav,none,0,0,Bug_01.jpg,2,2,Coconut_01.jpg,3,3,none,0,0,none,0,0,none,0,0,2,yes,NO,1884,SAMP;LE MODE 2 - sound only,../Data/raw_data/Testing//MTS_2020_07_27_01_11_05.csv,46,0,Bug_01.jpg_Coconut_01.jpg,3,246,regular,"NA"
none,Bunny.wav,none,0,0,Bunny_01.jpg,1,3,Orange_02.jpg,2,1,none,0,0,none,0,0,none,0,0,2,yes,YES (R),1371,SAMPLE;MODE 2 - sound only,../Data/raw_data/Testing//MTS_2020_07_27_01_11_05.csv,47,1,Bunny_01.jpg_Orange_02.jpg,3,247,regular,"NA"
none,Peaches.wav,none,0,0,Peaches_01.jpg,1,1,Backpack_01.jpg,3,2,none,0,0,none,0,0,none,0,0,2,yes,YES,1076,SAMPLE MODE 2;- sound only,../Data/raw_data/Testing//MTS_2020_07_27_01_11_05.csv,48,1,Peaches_01.jpg_Backpack_01.jpg,3,248,regular,"NA"
none,Fridge.wav,none,0,0,Fridge_01.jpg,1,2,Strawberries_02.jpg,3,1,none,0,0,none,0,0,none,0,0,2,yes,NO,1544,SAMPLE MODE 2 -;sound only,../Data/raw_data/Testing//MTS_2020_07_27_01_11_05.csv,49,0,Fridge_01.jpg_Strawberries_02.jpg,3,249,regular,"NA"
none,Oil.wav,none,0,0,Oil_02.jpg,1,3,Wipies_02.jpg,3,1,none,0,0,none,0,0,none,0,0,2,yes,YES,1516,SAMP;LE MODE 2 - sound only,../Data/raw_data/Testing//MTS_2020_07_27_01_11_05.csv,50,1,Oil_02.jpg_Wipies_02.jpg,3,250,regular,"NA"
none,Sweet Potato.wav,none,0,0,Sweet Potato_01.jpg,3,3,Oil_02.jpg,1,1,none,0,0,none,0,0,none,0,0,2,yes,YES (R),1383,SAMPLE MODE 2;- sound only,../Data/raw_data/Testing//MTS_2020_07_27_01_11_05.csv,51,1,Sweet Potato_01.jpg_Oil_02.jpg,3,251,regular,"NA"
none,Balloon.wav,none,0,0,Balloon_02.jpg,1,2,Shirt_02.jpg,3,3,none,0,0,none,0,0,none,0,0,2,yes,YES,1228,SAMPLE MODE;2 - sound only,../Data/raw_data/Testing//MTS_2020_07_27_01_11_05.csv,52,1,Balloon_02.jpg_Shirt_02.jpg,3,252,regular,"NA"
none,Hose.wav,none,0,0,Hose_02.jpg,1,3,Knife_01.jpg,2,2,none,0,0,none,0,0,none,0,0,2,yes,YES,1496,SAMPLE;MODE 2 - sound only,../Data/raw_data/Testing//MTS_2020_07_27_01_11_05.csv,53,1,Hose_02.jpg_Knife_01.jpg,3,253,regular,"NA"
none,Tummy.wav,none,0,0,Tummy_02.jpg,3,2,Sugar Cane_01.jpg,2,1,none,0,0,none,0,0,none,0,0,2,yes,YES,1483,SAMPLE MODE 2;- sound only,../Data/raw_data/Testing//MTS_2020_07_27_01_11_05.csv,54,1,Tummy_02.jpg_Sugar Cane_01.jpg,3,254,regular,"NA"
none,Blueberry.wav,none,0,0,Blueberry_02.jpg,3,3,Pinecone_01.jpg,1,2,none,0,0,none,0,0,none,0,0,2,yes,YES (R),1148,SAMPLE MODE;2 - sound only,../Data/raw_data/Testing//MTS_2020_07_27_01_11_05.csv,55,1,Blueberry_02.jpg_Pinecone_01.jpg,3,255,regular,"NA"
none,Apple.wav,none,0,0,Apple_01.jpg,3,1,Vitamin_01.jpg,2,3,none,0,0,none,0,0,none,0,0,2,yes,NO,1859,SAMPLE;MODE 2 - sound only,../Data/raw_data/Testing//MTS_2020_07_27_01_11_05.csv,56,0,Apple_01.jpg_Vitamin_01.jpg,3,256,regular,"NA"
none,Raisin.wav,none,0,0,Raisin_01.jpg,3,1,Noodles_02.jpg,1,2,none,0,0,none,0,0,none,0,0,2,yes,YES (R),1751,SAMPLE MODE 2 -;sound only,../Data/raw_data/Testing//MTS_2020_07_27_01_11_05.csv,57,1,Raisin_01.jpg_Noodles_02.jpg,3,257,regular,"NA"
none,Car.wav,none,0,0,Car_02.jpg,2,3,Baby_01.jpg,1,1,none,0,0,none,0,0,none,0,0,2,yes,NO,1967,SAMPLE MODE 2;- sound only,../Data/raw_data/Testing//MTS_2020_07_27_01_11_05.csv,58,0,Car_02.jpg_Baby_01.jpg,3,258,regular,"NA"
none,dudu.wav,none,0,0,RSlide21.jpg,1,2,Eshape3.jpg,2,1,none,0,0,none,0,0,none,0,0,2,no,NO,1247,S;AMPLE MODE 2 - sound only,../Data/raw_data/Testing//MTS_2020_07_27_01_11_05.csv,59,0,RSlide21.jpg_Eshape3.jpg,3,259,test,round
none,Pinecone.wav,none,0,0,Pinecone_01.jpg,1,2,Matata_02.jpg,2,3,none,0,0,none,0,0,none,0,0,2,yes,YES (R),987,SAMPLE MODE 2;- sound only,../Data/raw_data/Testing//MTS_2020_07_27_01_11_05.csv,60,1,Pinecone_01.jpg_Matata_02.jpg,3,260,regular,"NA"
none,Cooler.wav,none,0,0,Cooler_02.jpg,1,1,Snake_01.jpg,2,3,none,0,0,none,0,0,none,0,0,2,yes,YES (R),1879,SAMPLE MO;DE 2 - sound only,../Data/raw_data/Testing//MTS_2020_07_27_01_11_05.csv,61,1,Cooler_02.jpg_Snake_01.jpg,3,261,regular,"NA"
none,Rock.wav,none,0,0,Rock_01.jpg,3,3,Pear_01.jpg,2,1,none,0,0,none,0,0,none,0,0,2,yes,YES,1583,SAMPLE MODE 2;- sound only,../Data/raw_data/Testing//MTS_2020_07_27_01_11_05.csv,62,1,Rock_01.jpg_Pear_01.jpg,3,262,regular,"NA"
none,zizi.wav,none,0,0,ESlide34.jpg,1,3,RSlide26.jpg,3,1,none,0,0,none,0,0,none,0,0,2,no,NO,1035,SAMPLE MODE 2 -;sound only,../Data/raw_data/Testing//MTS_2020_07_27_01_11_05.csv,63,0,ESlide34.jpg_RSlide26.jpg,3,263,test,edgy
none,Swelling.wav,none,0,0,Swelling_01.jpg,3,3,Ball_01.jpg,1,1,none,0,0,none,0,0,none,0,0,2,yes,NO,1720,;SAMPLE MODE 2 - sound only,../Data/raw_data/Testing//MTS_2020_07_27_01_11_05.csv,64,0,Swelling_01.jpg_Ball_01.jpg,3,264,regular,"NA"
none,Elikya.wav,none,0,0,Elikya_01.jpg,1,3,Camera_01.jpg,3,2,none,0,0,none,0,0,none,0,0,2,yes,YES,2131,SAMPLE;MODE 2 - sound only,../Data/raw_data/Testing//MTS_2020_07_27_01_11_05.csv,65,1,Elikya_01.jpg_Camera_01.jpg,3,265,regular,"NA"
none,Elikya.wav,none,0,0,Elikya_02.jpg,3,2,Shoe_02.jpg,2,1,none,0,0,none,0,0,none,0,0,2,yes,YES (R),1111,SAMPLE MO;DE 2 - sound only,../Data/raw_data/Testing//MTS_2020_07_27_01_11_05.csv,66,1,Elikya_02.jpg_Shoe_02.jpg,3,266,regular,"NA"
none,Knife.wav,none,0,0,Knife_02.jpg,1,1,Foot_01.jpg,3,3,none,0,0,none,0,0,none,0,0,2,yes,YES (R),2008,SAMPLE MODE 2;- sound only,../Data/raw_data/Testing//MTS_2020_07_27_01_11_05.csv,67,1,Knife_02.jpg_Foot_01.jpg,3,267,regular,"NA"
none,Carrot.wav,none,0,0,Carrot_01.jpg,3,1,Gorilla_01.jpg,2,3,none,0,0,none,0,0,none,0,0,2,yes,NO,1819,SAMPLE MODE;2 - sound only,../Data/raw_data/Testing//MTS_2020_07_27_01_11_05.csv,68,0,Carrot_01.jpg_Gorilla_01.jpg,3,268,regular,"NA"
none,Juice.wav,none,0,0,Juice_01.jpg,2,2,Raisin_01.jpg,1,3,none,0,0,none,0,0,none,0,0,2,yes,YES (R),1523,SAMPLE MODE;2 - sound only,../Data/raw_data/Testing//MTS_2020_07_27_01_11_05.csv,69,1,Juice_01.jpg_Raisin_01.jpg,3,269,regular,"NA"
none,Blackberries.wav,none,0,0,Blackberries_02.jpg,2,2,Wipies_01.jpg,3,1,none,0,0,none,0,0,none,0,0,2,yes,YES,1451,SAMPLE MODE;2 - sound only,../Data/raw_data/Testing//MTS_2020_07_27_01_11_05.csv,70,1,Blackberries_02.jpg_Wipies_01.jpg,3,270,regular,"NA"
none,Phone.wav,none,0,0,Phone_01.jpg,1,3,Squirrel_01.jpg,3,1,none,0,0,none,0,0,none,0,0,2,yes,YES (R),1443,SAMPL;E MODE 2 - sound only,../Data/raw_data/Testing//MTS_2020_07_27_01_11_05.csv,71,1,Phone_01.jpg_Squirrel_01.jpg,3,271,regular,"NA"
none,Onion.wav,none,0,0,Onion_01.jpg,3,3,Milk_01.jpg,1,2,none,0,0,none,0,0,none,0,0,2,yes,NO,2200,SAMPLE;MODE 2 - sound only,../Data/raw_data/Testing//MTS_2020_07_27_01_11_05.csv,72,0,Onion_01.jpg_Milk_01.jpg,3,272,regular,"NA"
none,Nyota.wav,none,0,0,Nyota_02.jpg,3,1,Trash_01.jpg,1,3,none,0,0,none,0,0,none,0,0,2,yes,NO,1443,SAMPL;E MODE 2 - sound only,../Data/raw_data/Testing//MTS_2020_07_27_01_11_05.csv,73,0,Nyota_02.jpg_Trash_01.jpg,3,273,regular,"NA"
none,Straw.wav,none,0,0,Straw_02.jpg,3,1,Vitamin_02.jpg,2,3,none,0,0,none,0,0,none,0,0,2,yes,YES (R),1087,SAMPLE MOD;E 2 - sound only,../Data/raw_data/Testing//MTS_2020_07_27_01_11_05.csv,74,1,Straw_02.jpg_Vitamin_02.jpg,3,274,regular,"NA"
none,Gorilla.wav,none,0,0,Gorilla_02.jpg,3,1,Stick_02.jpg,2,2,none,0,0,none,0,0,none,0,0,2,yes,NO,1211,SAMPLE MO;DE 2 - sound only,../Data/raw_data/Testing//MTS_2020_07_27_01_11_05.csv,75,0,Gorilla_02.jpg_Stick_02.jpg,3,275,regular,"NA"
none,Tv.wav,none,0,0,Tv_02.jpg,2,3,Groom_02.jpg,1,2,none,0,0,none,0,0,none,0,0,2,yes,YES (R),1579,SAMPLE MODE 2 - s;ound only,../Data/raw_data/Testing//MTS_2020_07_27_01_11_05.csv,76,1,Tv_02.jpg_Groom_02.jpg,3,276,regular,"NA"
none,gugu.wav,none,0,0,RSlide27.jpg,2,3,ESlide6.jpg,3,1,none,0,0,none,0,0,none,0,0,2,no,NO,1227,SAMPLE MODE 2;- sound only,../Data/raw_data/Testing//MTS_2020_07_27_01_11_05.csv,77,0,RSlide27.jpg_ESlide6.jpg,3,277,test,round
none,Mouth.wav,none,0,0,Mouth_02.jpg,1,3,Pillow_02.jpg,3,2,none,0,0,none,0,0,none,0,0,2,yes,YES (R),1259,SAM;PLE MODE 2 - sound only,../Data/raw_data/Testing//MTS_2020_07_27_01_11_05.csv,78,1,Mouth_02.jpg_Pillow_02.jpg,3,278,regular,"NA"
none,Trash.wav,none,0,0,Trash_01.jpg,1,2,Tummy_01.jpg,3,3,none,0,0,none,0,0,none,0,0,2,yes,YES (R),1378,SAMPLE MO;DE 2 - sound only,../Data/raw_data/Testing//MTS_2020_07_27_01_11_05.csv,79,1,Trash_01.jpg_Tummy_01.jpg,3,279,regular,"NA"
none,Swelling.wav,none,0,0,Swelling_02.jpg,3,1,Lettuce_02.jpg,1,2,none,0,0,none,0,0,none,0,0,2,yes,YES (R),1912,SAMPLE;MODE 2 - sound only,../Data/raw_data/Testing//MTS_2020_07_27_01_11_05.csv,80,1,Swelling_02.jpg_Lettuce_02.jpg,3,280,regular,"NA"
none,Vitamin.wav,none,0,0,Vitamin_02.jpg,3,1,Juice_02.jpg,2,3,none,0,0,none,0,0,none,0,0,2,yes,NO,2039,SAMPLE M;ODE 2 - sound only,../Data/raw_data/Testing//MTS_2020_07_27_01_11_05.csv,81,0,Vitamin_02.jpg_Juice_02.jpg,3,281,regular,"NA"
none,Hat.wav,none,0,0,Hat_01.jpg,3,3,Coconut_02.jpg,1,1,none,0,0,none,0,0,none,0,0,2,yes,YES (R),1278,SAMPLE;MODE 2 - sound only,../Data/raw_data/Testing//MTS_2020_07_27_01_11_05.csv,82,1,Hat_01.jpg_Coconut_02.jpg,3,282,regular,"NA"
none,Banana.wav,none,0,0,Banana_01.jpg,2,2,Jelly_01.jpg,1,3,none,0,0,none,0,0,none,0,0,2,yes,YES,1194,SAMPLE MODE 2 -;sound only,../Data/raw_data/Testing//MTS_2020_07_27_01_11_05.csv,83,1,Banana_01.jpg_Jelly_01.jpg,3,283,regular,"NA"
none,Pinecone.wav,none,0,0,Pinecone_02.jpg,2,3,Cereal_01.jpg,1,2,none,0,0,none,0,0,none,0,0,2,yes,YES (R),1324,SAMPLE MOD;E 2 - sound only,../Data/raw_data/Testing//MTS_2020_07_27_01_11_05.csv,84,1,Pinecone_02.jpg_Cereal_01.jpg,3,284,regular,"NA"
none,Peanut.wav,none,0,0,Peanut_01.jpg,1,1,Tomato_02.jpg,2,2,none,0,0,none,0,0,none,0,0,2,yes,YES (R),1160,SAMPLE MODE 2 - so;und only,../Data/raw_data/Testing//MTS_2020_07_27_01_11_05.csv,85,1,Peanut_01.jpg_Tomato_02.jpg,3,285,regular,"NA"
none,Blackberries.wav,none,0,0,Blackberries_01.jpg,3,1,Elikya_01.jpg,1,2,none,0,0,none,0,0,none,0,0,2,yes,YES (R),1555,;SAMPLE MODE 2 - sound only,../Data/raw_data/Testing//MTS_2020_07_27_01_11_05.csv,86,1,Blackberries_01.jpg_Elikya_01.jpg,3,286,regular,"NA"
none,Raisin.wav,none,0,0,Raisin_02.jpg,3,2,Peaches_01.jpg,1,1,none,0,0,none,0,0,none,0,0,2,yes,YES (R),1122,SAMPLE MODE;2 - sound only,../Data/raw_data/Testing//MTS_2020_07_27_01_11_05.csv,87,1,Raisin_02.jpg_Peaches_01.jpg,3,287,regular,"NA"
none,Straw.wav,none,0,0,Straw_01.jpg,1,3,Tea_01.jpg,3,1,none,0,0,none,0,0,none,0,0,2,yes,YES (R),2335,SAMPLE MODE 2 -;sound only,../Data/raw_data/Testing//MTS_2020_07_27_01_11_05.csv,88,1,Straw_01.jpg_Tea_01.jpg,3,288,regular,"NA"
none,nono.wav,none,0,0,RSlide19.jpg,2,3,ESlide38.jpg,1,1,none,0,0,none,0,0,none,0,0,2,no,YES,1544,SAMPLE;MODE 2 - sound only,../Data/raw_data/Testing//MTS_2020_07_27_01_11_05.csv,89,1,RSlide19.jpg_ESlide38.jpg,3,289,test,round
none,Pear.wav,none,0,0,Pear_02.jpg,2,2,Sugar Cane_02.jpg,1,1,none,0,0,none,0,0,none,0,0,2,yes,YES (R),1155,;SAMPLE MODE 2 - sound only,../Data/raw_data/Testing//MTS_2020_07_27_01_11_05.csv,90,1,Pear_02.jpg_Sugar Cane_02.jpg,3,290,regular,"NA"
none,Bunny.wav,none,0,0,Bunny_02.jpg,3,3,Nyota_02.jpg,1,1,none,0,0,none,0,0,none,0,0,2,yes,YES (R),1775,SAMPLE MODE 2 -;sound only,../Data/raw_data/Testing//MTS_2020_07_27_01_11_05.csv,91,1,Bunny_02.jpg_Nyota_02.jpg,3,291,regular,"NA"
none,Fish.wav,none,0,0,Fish_02.jpg,1,2,Shirt_01.jpg,2,3,none,0,0,none,0,0,none,0,0,2,yes,NO,1639,SAMPLE MODE 2;- sound only,../Data/raw_data/Testing//MTS_2020_07_27_01_11_05.csv,92,0,Fish_02.jpg_Shirt_01.jpg,3,292,regular,"NA"
none,Green Bean.wav,none,0,0,Green Bean_02.jpg,1,3,Dog_02.jpg,3,2,none,0,0,none,0,0,none,0,0,2,yes,YES (R),1570,SAMPLE MODE;2 - sound only,../Data/raw_data/Testing//MTS_2020_07_27_01_11_05.csv,93,1,Green Bean_02.jpg_Dog_02.jpg,3,293,regular,"NA"
none,Banana.wav,none,0,0,Banana_02.jpg,2,1,Apricot_02.jpg,1,2,none,0,0,none,0,0,none,0,0,2,yes,YES (R),1259,SAMPLE MO;DE 2 - sound only,../Data/raw_data/Testing//MTS_2020_07_27_01_11_05.csv,94,1,Banana_02.jpg_Apricot_02.jpg,3,294,regular,"NA"
none,sisi.wav,none,0,0,ESlide46.jpg,3,3,RSlide37.jpg,2,1,none,0,0,none,0,0,none,0,0,2,no,NO,1051,SAMPL;E MODE 2 - sound only,../Data/raw_data/Testing//MTS_2020_07_27_01_11_05.csv,95,0,ESlide46.jpg_RSlide37.jpg,3,295,test,edgy
none,Matata.wav,none,0,0,Matata_02.jpg,3,1,String_02.jpg,2,3,none,0,0,none,0,0,none,0,0,2,yes,YES (R),1078,SAMPLE MOD;E 2 - sound only,../Data/raw_data/Testing//MTS_2020_07_27_01_11_05.csv,96,1,Matata_02.jpg_String_02.jpg,3,296,regular,"NA"
none,Dog.wav,none,0,0,Dog_02.jpg,1,2,Baby_02.jpg,2,1,none,0,0,none,0,0,none,0,0,2,yes,NO,1731,SAMPLE MODE;2 - sound only,../Data/raw_data/Testing//MTS_2020_07_27_01_11_05.csv,97,0,Dog_02.jpg_Baby_02.jpg,3,297,regular,"NA"
none,Bug.wav,none,0,0,Bug_02.jpg,1,1,Blackberries_02.jpg,3,3,none,0,0,none,0,0,none,0,0,2,yes,NO,1282,SAMPLE MODE 2 - sound only,../Data/raw_data/Testing//MTS_2020_07_27_01_11_05.csv,98,0,Bug_02.jpg_Blackberries_02.jpg,3,298,regular,"NA"
none,Key.wav,none,0,0,Key_02.jpg,1,1,Swelling_01.jpg,3,2,none,0,0,none,0,0,none,0,0,2,yes,YES,1851,SAMP;LE MODE 2 - sound only,../Data/raw_data/Testing//MTS_2020_07_27_01_11_05.csv,99,1,Key_02.jpg_Swelling_01.jpg,3,299,regular,"NA"
none,Turtle.wav,none,0,0,Turtle_01.jpg,1,1,Lemon_02.jpg,2,3,none,0,0,none,0,0,none,0,0,2,yes,YES,1343,SAMPLE MODE;2 - sound only,../Data/raw_data/Testing//MTS_2020_07_27_01_11_05.csv,100,1,Turtle_01.jpg_Lemon_02.jpg,3,300,regular,"NA"
none,Apricot.wav,none,0,0,Apricot_01.jpg,3,3,Hand_02.jpg,1,1,none,0,0,none,0,0,none,0,0,2,yes,YES (R),1254,SAMPLE;MODE 2 - sound only,../Data/raw_data/Testing//MTS_2020_07_27_01_11_05.csv,101,1,Apricot_01.jpg_Hand_02.jpg,3,301,regular,"NA"
none,Green Bean.wav,none,0,0,Green Bean_01.jpg,2,2,Mouth_02.jpg,1,3,none,0,0,none,0,0,none,0,0,2,yes,YES (R),1038,SAMPLE MODE 2 - sound only,../Data/raw_data/Testing//MTS_2020_07_28_03_08_38.csv,2,1,Green Bean_01.jpg_Mouth_02.jpg,4,302,regular,"NA"
none,Grapes.wav,none,0,0,Grapes_01.jpg,1,1,String_01.jpg,3,3,none,0,0,none,0,0,none,0,0,2,yes,YES,1271,SAMPLE MODE 2 - sound only,../Data/raw_data/Testing//MTS_2020_07_28_03_08_38.csv,3,1,Grapes_01.jpg_String_01.jpg,4,303,regular,"NA"
none,Blanket.wav,none,0,0,Blanket_01.jpg,1,1,Water_01.jpg,2,3,none,0,0,none,0,0,none,0,0,2,yes,NO,1350,SAMPLE MODE 2 - sound only,../Data/raw_data/Testing//MTS_2020_07_28_03_08_38.csv,4,0,Blanket_01.jpg_Water_01.jpg,4,304,regular,"NA"
none,Toothbrush.wav,none,0,0,Toothbrush_02.jpg,1,1,Banana_01.jpg,3,2,none,0,0,none,0,0,none,0,0,2,yes,YES (R),1663,SAMPLE MODE 2 - sound only,../Data/raw_data/Testing//MTS_2020_07_28_03_08_38.csv,5,1,Toothbrush_02.jpg_Banana_01.jpg,4,305,regular,"NA"
none,pepe.wav,none,0,0,ESlide8.jpg,3,2,RSlide19.jpg,1,1,none,0,0,none,0,0,none,0,0,2,no,YES,1300,SAMPLE MODE 2 - sound only,../Data/raw_data/Testing//MTS_2020_07_28_03_08_38.csv,6,1,ESlide8.jpg_RSlide19.jpg,4,306,test,edgy
none,Yogurt.wav,none,0,0,Yogurt_02.jpg,1,3,Jelly_02.jpg,3,1,none,0,0,none,0,0,none,0,0,2,yes,YES,1720,SAMPLE MODE 2 - sound only,../Data/raw_data/Testing//MTS_2020_07_28_03_08_38.csv,7,1,Yogurt_02.jpg_Jelly_02.jpg,4,307,regular,"NA"
none,Matata.wav,none,0,0,Matata_01.jpg,3,1,Popsicle_01.jpg,2,3,none,0,0,none,0,0,none,0,0,2,yes,YES (R),1195,SAMPLE MODE 2 - sound only,../Data/raw_data/Testing//MTS_2020_07_28_03_08_38.csv,8,1,Matata_01.jpg_Popsicle_01.jpg,4,308,regular,"NA"
none,Potato.wav,none,0,0,Potato_02.jpg,3,2,Ice_01.jpg,1,1,none,0,0,none,0,0,none,0,0,2,yes,YES (R),4448,SAMPLE MODE 2 - sound only,../Data/raw_data/Testing//MTS_2020_07_28_03_08_38.csv,9,1,Potato_02.jpg_Ice_01.jpg,4,309,regular,"NA"
none,Strawberries.wav,none,0,0,Strawberries_02.jpg,3,3,Celery_01.jpg,2,1,none,0,0,none,0,0,none,0,0,2,yes,YES (R),1596,SAMPLE MODE 2 - sound only,../Data/raw_data/Testing//MTS_2020_07_28_03_08_38.csv,10,1,Strawberries_02.jpg_Celery_01.jpg,4,310,regular,"NA"
none,Sugar Cane.wav,none,0,0,Sugar Cane_01.jpg,1,2,Apple_02.jpg,3,3,none,0,0,none,0,0,none,0,0,2,yes,YES,1591,SAMPLE MODE 2 - sound only,../Data/raw_data/Testing//MTS_2020_07_28_03_08_38.csv,11,1,Sugar Cane_01.jpg_Apple_02.jpg,4,311,regular,"NA"
none,Popsicle.wav,none,0,0,Popsicle_02.jpg,3,2,Shoe_01.jpg,1,3,none,0,0,none,0,0,none,0,0,2,yes,YES,1400,SAMPLE MODE 2 - sound only,../Data/raw_data/Testing//MTS_2020_07_28_03_08_38.csv,12,1,Popsicle_02.jpg_Shoe_01.jpg,4,312,regular,"NA"
none,Lemon.wav,none,0,0,Lemon_01.jpg,1,1,Kanzi_02.jpg,2,2,none,0,0,none,0,0,none,0,0,2,yes,YES (R),1637,SAMPLE MODE 2 - sound only,../Data/raw_data/Testing//MTS_2020_07_28_03_08_38.csv,13,1,Lemon_01.jpg_Kanzi_02.jpg,4,313,regular,"NA"
none,Egg.wav,none,0,0,Egg_02.jpg,1,1,Bird_02.jpg,2,3,none,0,0,none,0,0,none,0,0,2,yes,YES (R),1297,SAMPLE MODE 2 - sound only,../Data/raw_data/Testing//MTS_2020_07_28_03_08_38.csv,14,1,Egg_02.jpg_Bird_02.jpg,4,314,regular,"NA"
none,Baby.wav,none,0,0,Baby_01.jpg,3,2,Pineapple_02.jpg,1,1,none,0,0,none,0,0,none,0,0,2,yes,YES (R),1517,SAMPLE MODE 2 - sound only,../Data/raw_data/Testing//MTS_2020_07_28_03_08_38.csv,15,1,Baby_01.jpg_Pineapple_02.jpg,4,315,regular,"NA"
none,Orange.wav,none,0,0,Orange_02.jpg,2,1,Egg_02.jpg,3,3,none,0,0,none,0,0,none,0,0,2,yes,YES (R),2201,SAMPLE MODE 2 - sound only,../Data/raw_data/Testing//MTS_2020_07_28_03_08_38.csv,16,1,Orange_02.jpg_Egg_02.jpg,4,316,regular,"NA"
none,Lemon.wav,none,0,0,Lemon_02.jpg,2,3,Stick_01.jpg,3,1,none,0,0,none,0,0,none,0,0,2,yes,NO,1460,SAMPLE MODE 2 - sound only,../Data/raw_data/Testing//MTS_2020_07_28_03_08_38.csv,17,0,Lemon_02.jpg_Stick_01.jpg,4,317,regular,"NA"
none,Balloon.wav,none,0,0,Balloon_01.jpg,3,3,Cooler_02.jpg,1,1,none,0,0,none,0,0,none,0,0,2,yes,YES,1058,SAMPLE MODE 2 - sound only,../Data/raw_data/Testing//MTS_2020_07_28_03_08_38.csv,18,1,Balloon_01.jpg_Cooler_02.jpg,4,318,regular,"NA"
none,gogo.wav,none,0,0,Rshape5.jpg,2,2,ESlide38.jpg,3,3,none,0,0,none,0,0,none,0,0,2,no,YES,1002,SAMPLE MODE 2 - sound only,../Data/raw_data/Testing//MTS_2020_07_28_03_08_38.csv,19,1,Rshape5.jpg_ESlide38.jpg,4,319,test,round
none,Foot.wav,none,0,0,Foot_01.jpg,3,3,Apricot_01.jpg,2,2,none,0,0,none,0,0,none,0,0,2,yes,YES (R),1982,SAMPLE MODE 2 - sound only,../Data/raw_data/Testing//MTS_2020_07_28_03_08_38.csv,20,1,Foot_01.jpg_Apricot_01.jpg,4,320,regular,"NA"
none,Orange.wav,none,0,0,Orange_01.jpg,3,1,Melon_02.jpg,1,3,none,0,0,none,0,0,none,0,0,2,yes,YES,2049,SAMPLE MODE 2 - sound only,../Data/raw_data/Testing//MTS_2020_07_28_03_08_38.csv,21,1,Orange_01.jpg_Melon_02.jpg,4,321,regular,"NA"
none,Maisha.wav,none,0,0,Maisha_01.jpg,3,2,Potato_02.jpg,1,3,none,0,0,none,0,0,none,0,0,2,yes,YES (R),1303,SAMPLE MODE 2 - sound only,../Data/raw_data/Testing//MTS_2020_07_28_03_08_38.csv,22,1,Maisha_01.jpg_Potato_02.jpg,4,322,regular,"NA"
none,Celery.wav,none,0,0,Celery_02.jpg,3,3,Phone_02.jpg,1,2,none,0,0,none,0,0,none,0,0,2,yes,YES (R),1211,SAMPLE MODE 2 - sound only,../Data/raw_data/Testing//MTS_2020_07_28_03_08_38.csv,23,1,Celery_02.jpg_Phone_02.jpg,4,323,regular,"NA"
none,Bread.wav,none,0,0,Bread_02.jpg,2,2,Rock_01.jpg,3,3,none,0,0,none,0,0,none,0,0,2,yes,YES,1882,SAMPLE MODE 2 - sound only,../Data/raw_data/Testing//MTS_2020_07_28_03_08_38.csv,24,1,Bread_02.jpg_Rock_01.jpg,4,324,regular,"NA"
none,Baby.wav,none,0,0,Baby_02.jpg,2,1,Onion_01.jpg,1,2,none,0,0,none,0,0,none,0,0,2,yes,YES,1225,SAMPLE MODE 2 - sound only,../Data/raw_data/Testing//MTS_2020_07_28_03_08_38.csv,25,1,Baby_02.jpg_Onion_01.jpg,4,325,regular,"NA"
none,Snake.wav,none,0,0,Snake_02.jpg,2,3,Juice_01.jpg,1,1,none,0,0,none,0,0,none,0,0,2,yes,YES (R),1090,SAMPLE MODE 2 - sound only,../Data/raw_data/Testing//MTS_2020_07_28_03_08_38.csv,26,1,Snake_02.jpg_Juice_01.jpg,4,326,regular,"NA"
none,Rock.wav,none,0,0,Rock_02.jpg,3,3,Cherries_01.jpg,2,2,none,0,0,none,0,0,none,0,0,2,yes,YES (R),1191,SAMPLE MODE 2 - sound only,../Data/raw_data/Testing//MTS_2020_07_28_03_08_38.csv,27,1,Rock_02.jpg_Cherries_01.jpg,4,327,regular,"NA"
none,Knife.wav,none,0,0,Knife_01.jpg,2,1,Teco_01.jpg,3,3,none,0,0,none,0,0,none,0,0,2,yes,YES (R),1232,SAMPLE MODE 2 - sound only,../Data/raw_data/Testing//MTS_2020_07_28_03_08_38.csv,28,1,Knife_01.jpg_Teco_01.jpg,4,328,regular,"NA"
none,Bubbles.wav,none,0,0,Bubbles_02.jpg,3,1,Gorilla_02.jpg,1,2,none,0,0,none,0,0,none,0,0,2,yes,YES (R),1510,SAMPLE MODE 2 - sound only,../Data/raw_data/Testing//MTS_2020_07_28_03_08_38.csv,29,1,Bubbles_02.jpg_Gorilla_02.jpg,4,329,regular,"NA"
none,momo.wav,none,0,0,RSlide17.jpg,2,1,Eshape3.jpg,3,3,none,0,0,none,0,0,none,0,0,2,no,YES,976,SAMPLE MODE 2 - sound only,../Data/raw_data/Testing//MTS_2020_07_28_03_08_38.csv,30,1,RSlide17.jpg_Eshape3.jpg,4,330,test,round
none,Apricot.wav,none,0,0,Apricot_02.jpg,2,1,Turtle_02.jpg,1,3,none,0,0,none,0,0,none,0,0,2,yes,YES (R),1359,SAMPLE MODE 2 - sound only,../Data/raw_data/Testing//MTS_2020_07_28_03_08_38.csv,31,1,Apricot_02.jpg_Turtle_02.jpg,4,331,regular,"NA"
none,Potato.wav,none,0,0,Potato_01.jpg,2,1,Balloon_02.jpg,1,2,none,0,0,none,0,0,none,0,0,2,yes,YES (R),1234,SAMPLE MODE 2 - sound only,../Data/raw_data/Testing//MTS_2020_07_28_03_08_38.csv,32,1,Potato_01.jpg_Balloon_02.jpg,4,332,regular,"NA"
none,Turtle.wav,none,0,0,Turtle_02.jpg,1,1,Orange_01.jpg,2,2,none,0,0,none,0,0,none,0,0,2,yes,NO,1243,SAMPLE MODE 2 - sound only,../Data/raw_data/Testing//MTS_2020_07_28_03_08_38.csv,33,0,Turtle_02.jpg_Orange_01.jpg,4,333,regular,"NA"
none,Pear.wav,none,0,0,Pear_01.jpg,3,2,Fridge_02.jpg,1,3,none,0,0,none,0,0,none,0,0,2,yes,YES (R),1506,SAMPLE MODE 2 - sound only,../Data/raw_data/Testing//MTS_2020_07_28_03_08_38.csv,34,1,Pear_01.jpg_Fridge_02.jpg,4,334,regular,"NA"
none,Popsicle.wav,none,0,0,Popsicle_01.jpg,2,3,Dog_01.jpg,1,2,none,0,0,none,0,0,none,0,0,2,yes,YES,1254,SAMPLE MODE 2 - sound only,../Data/raw_data/Testing//MTS_2020_07_28_03_08_38.csv,35,1,Popsicle_01.jpg_Dog_01.jpg,4,335,regular,"NA"
none,Orangutan.wav,none,0,0,Orangutan_01.jpg,2,3,Camera_02.jpg,3,1,none,0,0,none,0,0,none,0,0,2,yes,NO,1938,SAMPLE MODE 2 - sound only,../Data/raw_data/Testing//MTS_2020_07_28_03_08_38.csv,36,0,Orangutan_01.jpg_Camera_02.jpg,4,336,regular,"NA"
none,Snake.wav,none,0,0,Snake_01.jpg,3,1,Ear_01.jpg,2,2,none,0,0,none,0,0,none,0,0,2,yes,YES (R),1279,SAMPLE MODE 2 - sound only,../Data/raw_data/Testing//MTS_2020_07_28_03_08_38.csv,37,1,Snake_01.jpg_Ear_01.jpg,4,337,regular,"NA"
none,pipi.wav,none,0,0,ESlide34.jpg,2,2,RSlide27.jpg,3,3,none,0,0,none,0,0,none,0,0,2,no,NO,1200,SAMPLE MODE 2 - sound only,../Data/raw_data/Testing//MTS_2020_07_28_03_08_38.csv,38,0,ESlide34.jpg_RSlide27.jpg,4,338,test,edgy
none,Key.wav,none,0,0,Key_01.jpg,2,1,Mushroom_01.jpg,1,3,none,0,0,none,0,0,none,0,0,2,yes,YES (R),1155,SAMPLE MODE 2 - sound only,../Data/raw_data/Testing//MTS_2020_07_28_03_08_38.csv,39,1,Key_01.jpg_Mushroom_01.jpg,4,339,regular,"NA"
none,Pineapple.wav,none,0,0,Pineapple_01.jpg,2,2,Key_01.jpg,1,1,none,0,0,none,0,0,none,0,0,2,yes,YES (R),1231,SAMPLE MODE 2 - sound only,../Data/raw_data/Testing//MTS_2020_07_28_03_08_38.csv,40,1,Pineapple_01.jpg_Key_01.jpg,4,340,regular,"NA"
none,Spoon.wav,none,0,0,Spoon_01.jpg,1,3,Yogurt_02.jpg,2,2,none,0,0,none,0,0,none,0,0,2,yes,YES (R),1919,SAMPLE MODE 2 - sound only,../Data/raw_data/Testing//MTS_2020_07_28_03_08_38.csv,41,1,Spoon_01.jpg_Yogurt_02.jpg,4,341,regular,"NA"
none,Lettuce.wav,none,0,0,Lettuce_01.jpg,3,1,Carrot_01.jpg,2,3,none,0,0,none,0,0,none,0,0,2,yes,YES,1820,SAMPLE MODE 2 - sound only,../Data/raw_data/Testing//MTS_2020_07_28_03_08_38.csv,42,1,Lettuce_01.jpg_Carrot_01.jpg,4,342,regular,"NA"
none,Toothbrush.wav,none,0,0,Toothbrush_01.jpg,1,3,Celery_02.jpg,3,2,none,0,0,none,0,0,none,0,0,2,yes,YES,1700,SAMPLE MODE 2 - sound only,../Data/raw_data/Testing//MTS_2020_07_28_03_08_38.csv,43,1,Toothbrush_01.jpg_Celery_02.jpg,4,343,regular,"NA"
none,Hand.wav,none,0,0,Hand_02.jpg,2,2,Sweet Potato_01.jpg,1,3,none,0,0,none,0,0,none,0,0,2,yes,YES,1574,SAMPLE MODE 2 - sound only,../Data/raw_data/Testing//MTS_2020_07_28_03_08_38.csv,44,1,Hand_02.jpg_Sweet Potato_01.jpg,4,344,regular,"NA"
none,Cherries.wav,none,0,0,Cherries_01.jpg,1,1,Lettuce_01.jpg,3,3,none,0,0,none,0,0,none,0,0,2,yes,YES (R),1272,SAMPLE MODE 2 - sound only,../Data/raw_data/Testing//MTS_2020_07_28_03_08_38.csv,45,1,Cherries_01.jpg_Lettuce_01.jpg,4,345,regular,"NA"
none,Noodles.wav,none,0,0,Noodles_01.jpg,3,3,Ear_02.jpg,1,2,none,0,0,none,0,0,none,0,0,2,yes,YES (R),3519,SAMPLE MODE 2 - sound only,../Data/raw_data/Testing//MTS_2020_07_28_03_08_38.csv,46,1,Noodles_01.jpg_Ear_02.jpg,4,346,regular,"NA"
none,Teco.wav,none,0,0,Teco_01.jpg,1,2,Car_02.jpg,2,1,none,0,0,none,0,0,none,0,0,2,yes,YES (R),1136,SAMPLE MODE 2 - sound only,../Data/raw_data/Testing//MTS_2020_07_28_03_08_38.csv,47,1,Teco_01.jpg_Car_02.jpg,4,347,regular,"NA"
none,kiki.wav,none,0,0,ESlide18.jpg,3,2,RSlide2.jpg,2,3,none,0,0,none,0,0,none,0,0,2,no,YES,1060,SAMPLE MODE 2 - sound only,../Data/raw_data/Testing//MTS_2020_07_28_03_08_38.csv,48,1,ESlide18.jpg_RSlide2.jpg,4,348,test,edgy
none,Tomato.wav,none,0,0,Tomato_02.jpg,3,2,Orangutan_02.jpg,2,3,none,0,0,none,0,0,none,0,0,2,yes,NO,1336,SAMPLE MODE 2 - sound only,../Data/raw_data/Testing//MTS_2020_07_28_03_08_38.csv,49,0,Tomato_02.jpg_Orangutan_02.jpg,4,349,regular,"NA"
none,Hat.wav,none,0,0,Hat_02.jpg,3,2,Foot_02.jpg,2,1,none,0,0,none,0,0,none,0,0,2,yes,NO,1644,SAMPLE MODE 2 - sound only,../Data/raw_data/Testing//MTS_2020_07_28_03_08_38.csv,50,0,Hat_02.jpg_Foot_02.jpg,4,350,regular,"NA"
none,Kanzi.wav,none,0,0,Kanzi_01.jpg,2,1,Spoon_02.jpg,1,3,none,0,0,none,0,0,none,0,0,2,yes,YES (R),1639,SAMPLE MODE 2 - sound only,../Data/raw_data/Testing//MTS_2020_07_28_03_08_38.csv,51,1,Kanzi_01.jpg_Spoon_02.jpg,4,351,regular,"NA"
none,Onion.wav,none,0,0,Onion_02.jpg,2,3,Toothbrush_01.jpg,1,1,none,0,0,none,0,0,none,0,0,2,yes,NO,1667,SAMPLE MODE 2 - sound only,../Data/raw_data/Testing//MTS_2020_07_28_03_08_38.csv,52,0,Onion_02.jpg_Toothbrush_01.jpg,4,352,regular,"NA"
none,lolo.wav,none,0,0,RSlide37.jpg,3,3,ESlide6.jpg,1,1,none,0,0,none,0,0,none,0,0,2,no,YES,780,SAMPLE MODE 2 - sound only,../Data/raw_data/Testing//MTS_2020_07_28_03_08_38.csv,53,1,RSlide37.jpg_ESlide6.jpg,4,353,test,round
none,Spoon.wav,none,0,0,Spoon_02.jpg,3,2,Peanut_01.jpg,2,1,none,0,0,none,0,0,none,0,0,2,yes,YES (R),1766,SAMPLE MODE 2 - sound only,../Data/raw_data/Testing//MTS_2020_07_28_03_08_38.csv,54,1,Spoon_02.jpg_Peanut_01.jpg,4,354,regular,"NA"
none,Peas.wav,none,0,0,Peas_02.jpg,3,2,Hat_01.jpg,2,3,none,0,0,none,0,0,none,0,0,2,yes,NO,1265,SAMPLE MODE 2 - sound only,../Data/raw_data/Testing//MTS_2020_07_28_03_08_38.csv,55,0,Peas_02.jpg_Hat_01.jpg,4,355,regular,"NA"
none,Bowl.wav,none,0,0,Bowl_01.jpg,3,1,Green Bean_01.jpg,1,2,none,0,0,none,0,0,none,0,0,2,yes,YES (R),1818,SAMPLE MODE 2 - sound only,../Data/raw_data/Testing//MTS_2020_07_28_03_08_38.csv,56,1,Bowl_01.jpg_Green Bean_01.jpg,4,356,regular,"NA"
none,Gorilla.wav,none,0,0,Gorilla_01.jpg,2,3,Tea_02.jpg,3,1,none,0,0,none,0,0,none,0,0,2,yes,YES (R),1457,SAMPLE MODE 2 - sound only,../Data/raw_data/Testing//MTS_2020_07_28_03_08_38.csv,57,1,Gorilla_01.jpg_Tea_02.jpg,4,357,regular,"NA"
none,Stick.wav,none,0,0,Stick_02.jpg,1,1,Bunny_02.jpg,2,2,none,0,0,none,0,0,none,0,0,2,yes,NO,1029,SAMPLE MODE 2 - sound only,../Data/raw_data/Testing//MTS_2020_07_28_03_08_38.csv,58,0,Stick_02.jpg_Bunny_02.jpg,4,358,regular,"NA"
none,Bread.wav,none,0,0,Bread_01.jpg,1,3,Swelling_02.jpg,2,1,none,0,0,none,0,0,none,0,0,2,yes,YES,1321,SAMPLE MODE 2 - sound only,../Data/raw_data/Testing//MTS_2020_07_28_03_08_38.csv,59,1,Bread_01.jpg_Swelling_02.jpg,4,359,regular,"NA"
none,Wipies.wav,none,0,0,Wipies_02.jpg,3,1,Bowl_01.jpg,1,2,none,0,0,none,0,0,none,0,0,2,yes,YES,2189,SAMPLE MODE 2 - sound only,../Data/raw_data/Testing//MTS_2020_07_28_03_08_38.csv,60,1,Wipies_02.jpg_Bowl_01.jpg,4,360,regular,"NA"
none,Cereal.wav,none,0,0,Cereal_01.jpg,3,1,Straw_02.jpg,2,2,none,0,0,none,0,0,none,0,0,2,yes,YES (R),1194,SAMPLE MODE 2 - sound only,../Data/raw_data/Testing//MTS_2020_07_28_03_08_38.csv,61,1,Cereal_01.jpg_Straw_02.jpg,4,361,regular,"NA"
none,Water.wav,none,0,0,Water_01.jpg,2,1,Hose_01.jpg,3,2,none,0,0,none,0,0,none,0,0,2,yes,NO,1455,SAMPLE MODE 2 - sound only,../Data/raw_data/Testing//MTS_2020_07_28_03_08_38.csv,62,0,Water_01.jpg_Hose_01.jpg,4,362,regular,"NA"
none,fifi.wav,none,0,0,Eshape.jpg,1,1,RSlide33.jpg,3,2,none,0,0,none,0,0,none,0,0,2,no,NO,1124,SAMPLE MODE 2 - sound only,../Data/raw_data/Testing//MTS_2020_07_28_03_08_38.csv,63,0,Eshape.jpg_RSlide33.jpg,4,363,test,edgy
none,Backpack.wav,none,0,0,Backpack_02.jpg,3,3,Tv_01.jpg,1,1,none,0,0,none,0,0,none,0,0,2,yes,YES (R),1484,SAMPLE MODE 2 - sound only,../Data/raw_data/Testing//MTS_2020_07_28_03_08_38.csv,64,1,Backpack_02.jpg_Tv_01.jpg,4,364,regular,"NA"
none,Milk.wav,none,0,0,Milk_02.jpg,3,3,Bread_01.jpg,1,1,none,0,0,none,0,0,none,0,0,2,yes,YES,1077,SAMPLE MODE 2 - sound only,../Data/raw_data/Testing//MTS_2020_07_28_03_08_38.csv,65,1,Milk_02.jpg_Bread_01.jpg,4,365,regular,"NA"
none,Ear.wav,none,0,0,Ear_01.jpg,1,3,Popsicle_02.jpg,2,1,none,0,0,none,0,0,none,0,0,2,yes,YES,1246,SAMPLE MODE 2 - sound only,../Data/raw_data/Testing//MTS_2020_07_28_03_08_38.csv,66,1,Ear_01.jpg_Popsicle_02.jpg,4,366,regular,"NA"
none,Yogurt.wav,none,0,0,Yogurt_01.jpg,2,2,Fridge_01.jpg,1,3,none,0,0,none,0,0,none,0,0,2,yes,YES (R),1061,SAMPLE MODE 2 - sound only,../Data/raw_data/Testing//MTS_2020_07_28_03_08_38.csv,67,1,Yogurt_01.jpg_Fridge_01.jpg,4,367,regular,"NA"
none,String.wav,none,0,0,String_01.jpg,1,3,Lighter_01.jpg,2,2,none,0,0,none,0,0,none,0,0,2,yes,YES (R),1985,SAMPLE MODE 2 - sound only,../Data/raw_data/Testing//MTS_2020_07_28_03_08_38.csv,68,1,String_01.jpg_Lighter_01.jpg,4,368,regular,"NA"
none,Fire.wav,none,0,0,Fire_01.jpg,2,3,Water_02.jpg,1,1,none,0,0,none,0,0,none,0,0,2,yes,NO,1958,SAMPLE MODE 2 - sound only,../Data/raw_data/Testing//MTS_2020_07_28_03_08_38.csv,69,0,Fire_01.jpg_Water_02.jpg,4,369,regular,"NA"
none,Ear.wav,none,0,0,Ear_02.jpg,3,1,Pear_02.jpg,1,3,none,0,0,none,0,0,none,0,0,2,yes,YES (R),1877,SAMPLE MODE 2 - sound only,../Data/raw_data/Testing//MTS_2020_07_28_03_08_38.csv,70,1,Ear_02.jpg_Pear_02.jpg,4,370,regular,"NA"
none,Noodles.wav,none,0,0,Noodles_02.jpg,3,1,Phone_01.jpg,2,2,none,0,0,none,0,0,none,0,0,2,yes,YES (R),995,SAMPLE MODE 2 - sound only,../Data/raw_data/Testing//MTS_2020_07_28_03_08_38.csv,71,1,Noodles_02.jpg_Phone_01.jpg,4,371,regular,"NA"
none,Car.wav,none,0,0,Car_01.jpg,2,1,Bug_01.jpg,1,2,none,0,0,none,0,0,none,0,0,2,yes,NO,1164,SAMPLE MODE 2 - sound only,../Data/raw_data/Testing//MTS_2020_07_28_03_08_38.csv,72,0,Car_01.jpg_Bug_01.jpg,4,372,regular,"NA"
none,Hand.wav,none,0,0,Hand_01.jpg,2,1,Cherries_02.jpg,3,2,none,0,0,none,0,0,none,0,0,2,yes,YES (R),2367,SAMPLE MODE 2 - sound only,../Data/raw_data/Testing//MTS_2020_07_28_03_08_38.csv,73,1,Hand_01.jpg_Cherries_02.jpg,4,373,regular,"NA"
none,mumu.wav,none,0,0,RSlide9.jpg,2,1,Eshape4.jpg,1,2,none,0,0,none,0,0,none,0,0,2,no,NO,926,SAMPLE MODE 2 - sound only,../Data/raw_data/Testing//MTS_2020_07_28_03_08_38.csv,74,0,RSlide9.jpg_Eshape4.jpg,4,374,test,round
none,Blueberry.wav,none,0,0,Blueberry_01.jpg,2,2,Watermelon_02.jpg,3,3,none,0,0,none,0,0,none,0,0,2,yes,YES,1157,SAMPLE MODE 2 - sound only,../Data/raw_data/Testing//MTS_2020_07_28_03_08_38.csv,75,1,Blueberry_01.jpg_Watermelon_02.jpg,4,375,regular,"NA"
none,Squirrel.wav,none,0,0,Squirrel_01.jpg,3,1,Lemon_01.jpg,1,2,none,0,0,none,0,0,none,0,0,2,yes,YES,1293,SAMPLE MODE 2 - sound only,../Data/raw_data/Testing//MTS_2020_07_28_03_08_38.csv,76,1,Squirrel_01.jpg_Lemon_01.jpg,4,376,regular,"NA"
none,Cheese.wav,none,0,0,Cheese_01.jpg,3,1,Ball_02.jpg,1,2,none,0,0,none,0,0,none,0,0,2,yes,YES (R),1481,SAMPLE MODE 2 - sound only,../Data/raw_data/Testing//MTS_2020_07_28_03_08_38.csv,77,1,Cheese_01.jpg_Ball_02.jpg,4,377,regular,"NA"
none,Bubbles.wav,none,0,0,Bubbles_01.jpg,1,1,Key_02.jpg,3,2,none,0,0,none,0,0,none,0,0,2,yes,NO,1747,SAMPLE MODE 2 - sound only,../Data/raw_data/Testing//MTS_2020_07_28_03_08_38.csv,78,0,Bubbles_01.jpg_Key_02.jpg,4,378,regular,"NA"
none,Mouth.wav,none,0,0,Mouth_01.jpg,2,3,Brush_01.jpg,1,2,none,0,0,none,0,0,none,0,0,2,yes,NO,1288,SAMPLE MODE 2 - sound only,../Data/raw_data/Testing//MTS_2020_07_28_03_08_38.csv,79,0,Mouth_01.jpg_Brush_01.jpg,4,379,regular,"NA"
none,Milk.wav,none,0,0,Milk_01.jpg,1,1,Carrot_02.jpg,2,3,none,0,0,none,0,0,none,0,0,2,yes,YES (R),1706,SAMPLE MODE 2 - sound only,../Data/raw_data/Testing//MTS_2020_07_28_03_08_38.csv,80,1,Milk_01.jpg_Carrot_02.jpg,4,380,regular,"NA"
none,Blanket.wav,none,0,0,Blanket_02.jpg,1,2,Onion_02.jpg,3,3,none,0,0,none,0,0,none,0,0,2,yes,YES (R),1245,SAMPLE MODE 2 - sound only,../Data/raw_data/Testing//MTS_2020_07_28_03_08_38.csv,81,1,Blanket_02.jpg_Onion_02.jpg,4,381,regular,"NA"
none,Orangutan.wav,none,0,0,Orangutan_02.jpg,3,1,Blackberries_01.jpg,1,3,none,0,0,none,0,0,none,0,0,2,yes,YES (R),1156,SAMPLE MODE 2 - sound only,../Data/raw_data/Testing//MTS_2020_07_28_03_08_38.csv,82,1,Orangutan_02.jpg_Blackberries_01.jpg,4,382,regular,"NA"
none,Ice.wav,none,0,0,Ice_01.jpg,3,1,Mouth_01.jpg,2,2,none,0,0,none,0,0,none,0,0,2,yes,YES (R),1113,SAMPLE MODE 2 - sound only,../Data/raw_data/Testing//MTS_2020_07_28_03_08_38.csv,83,1,Ice_01.jpg_Mouth_01.jpg,4,383,regular,"NA"
none,Bird.wav,none,0,0,Bird_01.jpg,2,1,Milk_02.jpg,1,3,none,0,0,none,0,0,none,0,0,2,yes,YES,2130,SAMPLE MODE 2 - sound only,../Data/raw_data/Testing//MTS_2020_07_28_03_08_38.csv,84,1,Bird_01.jpg_Milk_02.jpg,4,384,regular,"NA"
none,Oil.wav,none,0,0,Oil_01.jpg,3,2,Bread_02.jpg,2,3,none,0,0,none,0,0,none,0,0,2,yes,YES,1501,SAMPLE MODE 2 - sound only,../Data/raw_data/Testing//MTS_2020_07_28_03_08_38.csv,85,1,Oil_01.jpg_Bread_02.jpg,4,385,regular,"NA"
none,Lettuce.wav,none,0,0,Lettuce_02.jpg,3,3,Peanut_02.jpg,2,2,none,0,0,none,0,0,none,0,0,2,yes,YES (R),1817,SAMPLE MODE 2 - sound only,../Data/raw_data/Testing//MTS_2020_07_28_03_08_38.csv,86,1,Lettuce_02.jpg_Peanut_02.jpg,4,386,regular,"NA"
none,Brush.wav,none,0,0,Brush_02.jpg,1,3,Rock_02.jpg,2,1,none,0,0,none,0,0,none,0,0,2,yes,YES (R),1929,SAMPLE MODE 2 - sound only,../Data/raw_data/Testing//MTS_2020_07_28_03_08_38.csv,87,1,Brush_02.jpg_Rock_02.jpg,4,387,regular,"NA"
none,Sugar Cane.wav,none,0,0,Sugar Cane_02.jpg,1,2,Egg_01.jpg,3,3,none,0,0,none,0,0,none,0,0,2,yes,YES (R),1866,SAMPLE MODE 2 - sound only,../Data/raw_data/Testing//MTS_2020_07_28_03_08_38.csv,88,1,Sugar Cane_02.jpg_Egg_01.jpg,4,388,regular,"NA"
none,Groom.wav,none,0,0,Groom_02.jpg,3,1,Banana_02.jpg,1,2,none,0,0,none,0,0,none,0,0,2,yes,YES (R),916,SAMPLE MODE 2 - sound only,../Data/raw_data/Testing//MTS_2020_07_28_03_08_38.csv,89,1,Groom_02.jpg_Banana_02.jpg,4,389,regular,"NA"
none,lulu.wav,none,0,0,RSlide21.jpg,1,1,ESlide22.jpg,3,3,none,0,0,none,0,0,none,0,0,2,no,YES,919,SAMPLE MODE 2 - sound only,../Data/raw_data/Testing//MTS_2020_07_28_03_08_38.csv,90,1,RSlide21.jpg_ESlide22.jpg,4,390,test,round
none,Jelly.wav,none,0,0,Jelly_01.jpg,3,3,Green Bean_02.jpg,2,2,none,0,0,none,0,0,none,0,0,2,yes,YES (R),1264,SAMPLE MODE 2 - sound only,../Data/raw_data/Testing//MTS_2020_07_28_03_08_38.csv,91,1,Jelly_01.jpg_Green Bean_02.jpg,4,391,regular,"NA"
none,Cereal.wav,none,0,0,Cereal_02.jpg,1,3,Tummy_02.jpg,2,1,none,0,0,none,0,0,none,0,0,2,yes,NO,1371,SAMPLE MODE 2 - sound only,../Data/raw_data/Testing//MTS_2020_07_28_03_08_38.csv,92,0,Cereal_02.jpg_Tummy_02.jpg,4,392,regular,"NA"
none,Juice.wav,none,0,0,Juice_02.jpg,1,1,Melon_01.jpg,3,2,none,0,0,none,0,0,none,0,0,2,yes,YES (R),2301,SAMPLE MODE 2 - sound only,../Data/raw_data/Testing//MTS_2020_07_28_03_08_38.csv,93,1,Juice_02.jpg_Melon_01.jpg,4,393,regular,"NA"
none,keke.wav,none,0,0,ESlide46.jpg,2,2,RSlide26.jpg,3,3,none,0,0,none,0,0,none,0,0,2,no,YES,3485,SAMPLE MODE 2 - sound only,../Data/raw_data/Testing//MTS_2020_07_28_03_08_38.csv,94,1,ESlide46.jpg_RSlide26.jpg,4,394,test,edgy
none,Shoe.wav,none,0,0,Shoe_02.jpg,1,3,Brush_02.jpg,2,1,none,0,0,none,0,0,none,0,0,2,yes,YES (R),1369,SAMPLE MODE 2 - sound only,../Data/raw_data/Testing//MTS_2020_07_28_03_08_38.csv,95,1,Shoe_02.jpg_Brush_02.jpg,4,395,regular,"NA"
none,String.wav,none,0,0,String_02.jpg,2,3,Nyota_01.jpg,1,2,none,0,0,none,0,0,none,0,0,2,yes,YES (R),1614,SAMPLE MODE 2 - sound only,../Data/raw_data/Testing//MTS_2020_07_28_03_08_38.csv,96,1,String_02.jpg_Nyota_01.jpg,4,396,regular,"NA"
none,Camera.wav,none,0,0,Camera_01.jpg,1,1,Fire_01.jpg,3,2,none,0,0,none,0,0,none,0,0,2,yes,NO,2391,SAMPLE MODE 2 - sound only,../Data/raw_data/Testing//MTS_2020_07_28_03_08_38.csv,97,0,Camera_01.jpg_Fire_01.jpg,4,397,regular,"NA"
none,Pillow.wav,none,0,0,Pillow_01.jpg,3,3,Bubbles_02.jpg,2,2,none,0,0,none,0,0,none,0,0,2,yes,NO,2068,SAMPLE MODE 2 - sound only,../Data/raw_data/Testing//MTS_2020_07_28_03_08_38.csv,98,0,Pillow_01.jpg_Bubbles_02.jpg,4,398,regular,"NA"
none,Groom.wav,none,0,0,Groom_01.jpg,2,2,Fish_01.jpg,1,1,none,0,0,none,0,0,none,0,0,2,yes,YES (R),1065,SAMPLE MODE 2 - sound only,../Data/raw_data/Testing//MTS_2020_07_28_03_08_38.csv,99,1,Groom_01.jpg_Fish_01.jpg,4,399,regular,"NA"
none,Ice.wav,none,0,0,Ice_02.jpg,1,3,Knife_02.jpg,2,2,none,0,0,none,0,0,none,0,0,2,yes,YES,1320,SAMPLE MODE 2 - sound only,../Data/raw_data/Testing//MTS_2020_07_28_03_08_38.csv,100,1,Ice_02.jpg_Knife_02.jpg,4,400,regular,"NA"
none,Tummy.wav,none,0,0,Tummy_01.jpg,3,2,Blanket_01.jpg,1,1,none,0,0,none,0,0,none,0,0,2,yes,YES (R),1986,SAMPLE MODE 2 - sound only,../Data/raw_data/Testing//MTS_2020_07_28_03_08_38.csv,101,1,Tummy_01.jpg_Blanket_01.jpg,4,401,regular,"NA"
none,Peanut.wav,none,0,0,Peanut_02.jpg,1,3,Hand_01.jpg,3,2,none,0,0,none,0,0,none,0,0,2,yes,YES (R),1424,SAMPLE MODE 2 - sound only,../Data/raw_data/Testing//MTS_2020_07_29_02_23_58.csv,2,1,Peanut_02.jpg_Hand_01.jpg,5,402,regular,"NA"
none,Sweet Potato.wav,none,0,0,Sweet Potato_02.jpg,3,3,Backpack_02.jpg,2,1,none,0,0,none,0,0,none,0,0,2,yes,YES (R),1221,SAMPLE MODE 2 - sound only,../Data/raw_data/Testing//MTS_2020_07_29_02_23_58.csv,3,1,Sweet Potato_02.jpg_Backpack_02.jpg,5,403,regular,"NA"
none,Cheese.wav,none,0,0,Cheese_02.jpg,3,3,Stethoscope_02.jpg,2,2,none,0,0,none,0,0,none,0,0,2,yes,NO,1812,SAMPLE MODE 2 - sound only,../Data/raw_data/Testing//MTS_2020_07_29_02_23_58.csv,4,0,Cheese_02.jpg_Stethoscope_02.jpg,5,404,regular,"NA"
none,Dog.wav,none,0,0,Dog_01.jpg,1,1,Watermelon_01.jpg,3,3,none,0,0,none,0,0,none,0,0,2,yes,YES (R),1967,SAMPLE MODE 2 - sound only,../Data/raw_data/Testing//MTS_2020_07_29_02_23_58.csv,5,1,Dog_01.jpg_Watermelon_01.jpg,5,405,regular,"NA"
none,Carrot.wav,none,0,0,Carrot_02.jpg,1,1,Turtle_01.jpg,3,2,none,0,0,none,0,0,none,0,0,2,yes,NO,1489,SAMPLE MODE 2 - sound only,../Data/raw_data/Testing//MTS_2020_07_29_02_23_58.csv,6,0,Carrot_02.jpg_Turtle_01.jpg,5,406,regular,"NA"
none,Shirt.wav,none,0,0,Shirt_01.jpg,3,2,Tv_02.jpg,1,1,none,0,0,none,0,0,none,0,0,2,yes,YES (R),1035,SAMPLE MODE 2 - sound only,../Data/raw_data/Testing//MTS_2020_07_29_02_23_58.csv,7,1,Shirt_01.jpg_Tv_02.jpg,5,407,regular,"NA"
none,Water.wav,none,0,0,Water_02.jpg,2,1,Squirrel_02.jpg,1,3,none,0,0,none,0,0,none,0,0,2,yes,YES (R),1242,SAMPLE MODE 2 - sound only,../Data/raw_data/Testing//MTS_2020_07_29_02_23_58.csv,8,1,Water_02.jpg_Squirrel_02.jpg,5,408,regular,"NA"
none,mumu.wav,none,0,0,RSlide33.jpg,3,2,Eshape4.jpg,2,3,none,0,0,none,0,0,none,0,0,2,no,YES,806,SAMPLE MODE 2 - sound only,../Data/raw_data/Testing//MTS_2020_07_29_02_23_58.csv,9,1,RSlide33.jpg_Eshape4.jpg,5,409,test,round
none,Peas.wav,none,0,0,Peas_01.jpg,3,2,Strawberries_01.jpg,1,3,none,0,0,none,0,0,none,0,0,2,yes,YES (R),1107,SAMPLE MODE 2 - sound only,../Data/raw_data/Testing//MTS_2020_07_29_02_23_58.csv,10,1,Peas_01.jpg_Strawberries_01.jpg,5,410,regular,"NA"
none,Mushroom.wav,none,0,0,Mushroom_02.jpg,1,1,Orangutan_01.jpg,2,2,none,0,0,none,0,0,none,0,0,2,yes,YES (R),1176,SAMPLE MODE 2 - sound only,../Data/raw_data/Testing//MTS_2020_07_29_02_23_58.csv,11,1,Mushroom_02.jpg_Orangutan_01.jpg,5,411,regular,"NA"
none,Apple.wav,none,0,0,Apple_02.jpg,1,1,Potato_01.jpg,2,3,none,0,0,none,0,0,none,0,0,2,yes,YES,1612,SAMPLE MODE 2 - sound only,../Data/raw_data/Testing//MTS_2020_07_29_02_23_58.csv,12,1,Apple_02.jpg_Potato_01.jpg,5,412,regular,"NA"
none,Melon.wav,none,0,0,Melon_01.jpg,2,3,Blueberry_01.jpg,3,1,none,0,0,none,0,0,none,0,0,2,yes,YES (R),1535,SAMPLE MODE 2 - sound only,../Data/raw_data/Testing//MTS_2020_07_29_02_23_58.csv,13,1,Melon_01.jpg_Blueberry_01.jpg,5,413,regular,"NA"
none,Foot.wav,none,0,0,Foot_02.jpg,1,1,Peas_01.jpg,3,3,none,0,0,none,0,0,none,0,0,2,yes,YES,1502,SAMPLE MODE 2 - sound only,../Data/raw_data/Testing//MTS_2020_07_29_02_23_58.csv,14,1,Foot_02.jpg_Peas_01.jpg,5,414,regular,"NA"
none,dodo.wav,none,0,0,RSlide21.jpg,2,1,ESlide18.jpg,1,3,none,0,0,none,0,0,none,0,0,2,no,YES,885,SAMPLE MODE 2 - sound only,../Data/raw_data/Testing//MTS_2020_07_29_02_23_58.csv,15,1,RSlide21.jpg_ESlide18.jpg,5,415,test,round
none,Jelly.wav,none,0,0,Jelly_02.jpg,1,3,Apple_01.jpg,2,2,none,0,0,none,0,0,none,0,0,2,yes,YES (R),1557,SAMPLE MODE 2 - sound only,../Data/raw_data/Testing//MTS_2020_07_29_02_23_58.csv,16,1,Jelly_02.jpg_Apple_01.jpg,5,416,regular,"NA"
none,Hose.wav,none,0,0,Hose_01.jpg,1,3,Elikya_02.jpg,2,2,none,0,0,none,0,0,none,0,0,2,yes,YES,1085,SAMPLE MODE 2 - sound only,../Data/raw_data/Testing//MTS_2020_07_29_02_23_58.csv,17,1,Hose_01.jpg_Elikya_02.jpg,5,417,regular,"NA"
none,Coconut.wav,none,0,0,Coconut_01.jpg,2,2,Yogurt_01.jpg,1,3,none,0,0,none,0,0,none,0,0,2,yes,YES (R),1877,SAMPLE MODE 2 - sound only,../Data/raw_data/Testing//MTS_2020_07_29_02_23_58.csv,18,1,Coconut_01.jpg_Yogurt_01.jpg,5,418,regular,"NA"
none,Fire.wav,none,0,0,Fire_02.jpg,3,3,Bug_02.jpg,1,1,none,0,0,none,0,0,none,0,0,2,yes,YES (R),1452,SAMPLE MODE 2 - sound only,../Data/raw_data/Testing//MTS_2020_07_29_02_23_58.csv,19,1,Fire_02.jpg_Bug_02.jpg,5,419,regular,"NA"
none,Teco.wav,none,0,0,Teco_02.jpg,2,1,Maisha_02.jpg,3,3,none,0,0,none,0,0,none,0,0,2,yes,YES (R),1331,SAMPLE MODE 2 - sound only,../Data/raw_data/Testing//MTS_2020_07_29_02_23_58.csv,20,1,Teco_02.jpg_Maisha_02.jpg,5,420,regular,"NA"
none,Cherries.wav,none,0,0,Cherries_02.jpg,3,2,Grapes_01.jpg,1,3,none,0,0,none,0,0,none,0,0,2,yes,YES (R),874,SAMPLE MODE 2 - sound only,../Data/raw_data/Testing//MTS_2020_07_29_02_23_58.csv,21,1,Cherries_02.jpg_Grapes_01.jpg,5,421,regular,"NA"
none,Bowl.wav,none,0,0,Bowl_02.jpg,3,2,Cereal_02.jpg,1,1,none,0,0,none,0,0,none,0,0,2,yes,YES (R),1021,SAMPLE MODE 2 - sound only,../Data/raw_data/Testing//MTS_2020_07_29_02_23_58.csv,22,1,Bowl_02.jpg_Cereal_02.jpg,5,422,regular,"NA"
none,Shoe.wav,none,0,0,Shoe_01.jpg,3,1,Trash_02.jpg,2,3,none,0,0,none,0,0,none,0,0,2,yes,YES,896,SAMPLE MODE 2 - sound only,../Data/raw_data/Testing//MTS_2020_07_29_02_23_58.csv,23,1,Shoe_01.jpg_Trash_02.jpg,5,423,regular,"NA"
none,Nyota.wav,none,0,0,Nyota_01.jpg,1,1,Noodles_01.jpg,3,3,none,0,0,none,0,0,none,0,0,2,yes,YES (R),1152,SAMPLE MODE 2 - sound only,../Data/raw_data/Testing//MTS_2020_07_29_02_23_58.csv,24,1,Nyota_01.jpg_Noodles_01.jpg,5,424,regular,"NA"
none,Vitamin.wav,none,0,0,Vitamin_01.jpg,1,2,Bunny_01.jpg,3,3,none,0,0,none,0,0,none,0,0,2,yes,NO,1203,SAMPLE MODE 2 - sound only,../Data/raw_data/Testing//MTS_2020_07_29_02_23_58.csv,25,0,Vitamin_01.jpg_Bunny_01.jpg,5,425,regular,"NA"
none,Fridge.wav,none,0,0,Fridge_02.jpg,1,3,Spoon_01.jpg,2,1,none,0,0,none,0,0,none,0,0,2,yes,NO,1241,SAMPLE MODE 2 - sound only,../Data/raw_data/Testing//MTS_2020_07_29_02_23_58.csv,26,0,Fridge_02.jpg_Spoon_01.jpg,5,426,regular,"NA"
